block_list,fix_dur,target_dur,isi_dur,probe_dur,iti_dur,stim_size,target_list,probe_L,probe_R,correct_resp,condStim,condDur,condOrient,upright_flag,inverted_flag,blocks_practice.thisRepN,blocks_practice.thisTrialN,blocks_practice.thisN,blocks_practice.thisIndex,trials_practice_up.thisRepN,trials_practice_up.thisTrialN,trials_practice_up.thisN,trials_practice_up.thisIndex,trials_practice_inv.thisRepN,trials_practice_inv.thisTrialN,trials_practice_inv.thisN,trials_practice_inv.thisIndex,blocks_order.thisRepN,blocks_order.thisTrialN,blocks_order.thisN,blocks_order.thisIndex,trials_upright.thisRepN,trials_upright.thisTrialN,trials_upright.thisN,trials_upright.thisIndex,trials_inverted.thisRepN,trials_inverted.thisTrialN,trials_inverted.thisN,trials_inverted.thisIndex,thisRow.t,notes,Start.started,Start.stopped,instrPractice.started,key_resp_practice.started,instrPractice.stopped,key_resp_practice.keys,key_resp_practice.rt,key_resp_practice.duration,getReady.started,getReady.stopped,Fixation.started,text_fixation.started,text_fixation.stopped,Fixation.stopped,EncodingUpright.started,orient,image_target_upright.started,image_target_upright.stopped,EncodingUpright.stopped,ISI.started,isi_jittered,text_isi.started,text_isi.stopped,ISI.stopped,ProbeUpPractice.started,image_probePrac_up_left.started,image_probePrace_up_right.started,key_resp_up_prac.started,image_probePrac_up_left.stopped,image_probePrace_up_right.stopped,key_resp_up_prac.stopped,ProbeUpPractice.stopped,key_resp_up_prac.keys,key_resp_up_prac.corr,key_resp_up_prac.rt,key_resp_up_prac.duration,ITI.started,iti_jittered,text_iti.started,text_iti.stopped,ITI.stopped,EncodingInverted.started,image_target_inverted.started,image_target_inverted.stopped,EncodingInverted.stopped,ProbeInvPractice.started,image_probePrac_inv_left.started,image_probePrace_inv_right.started,key_resp_inv_prac.started,image_probePrac_inv_left.stopped,image_probePrace_inv_right.stopped,key_resp_inv_prac.stopped,ProbeInvPractice.stopped,key_resp_inv_prac.keys,key_resp_inv_prac.corr,key_resp_inv_prac.rt,key_resp_inv_prac.duration,FB_Practice.started,key_resp_endPractice.started,FB_Practice.stopped,key_resp_endPractice.keys,key_resp_endPractice.rt,key_resp_endPractice.duration,ProbeUpright.started,image_probe_upright_left.started,image_probe_upright_right.started,key_resp_upright.started,image_probe_upright_left.stopped,image_probe_upright_right.stopped,key_resp_upright.stopped,ProbeUpright.stopped,key_resp_upright.keys,key_resp_upright.corr,key_resp_upright.rt,key_resp_upright.duration,IBI.started,text_ibi.started,IBI.stopped,ProbeInverted.started,image_probe_inverted_left.started,image_probe_inverted_right.started,key_resp_inverted.started,image_probe_inverted_left.stopped,image_probe_inverted_right.stopped,key_resp_inverted.stopped,ProbeInverted.stopped,key_resp_inverted.keys,key_resp_inverted.corr,key_resp_inverted.rt,key_resp_inverted.duration,ThankYou.started,text_thanks.started,ThankYou.stopped,participant,session,order,EEG,EyeLink,EyeTribe,Calibrate,date,expName,psychopyVersion,frameRate,expStart,
,,,,,,,,,,,,,,,,,,,,,,,,,,,,,,,,,,,,,,,,,,0.007697977009229362,0.010337932006223127,,,,,,,,,,,,,,,,,,,,,,,,,,,,,,,,,,,,,,,,,,,,,,,,,,,,,,,,,,,,,,,,,,,,,,,,,,,,,,,,,,,,,,,,,,,,001,1,1,False,False,False,False,2025-01-21_10h30.07.108,inversion_effect,2024.1.0,None,2025-01-21 10h30.14.482682 -0800,
,,,,,,,,,,,,,,,,,,,,,,,,,,,,,,,,,,,,,,,,,,,,0.010390412004198879,0.026374997018137947,2.0641265099984594,space,2.0290332290169317,None,,,,,,,,,,,,,,,,,,,,,,,,,,,,,,,,,,,,,,,,,,,,,,,,,,,,,,,,,,,,,,,,,,,,,,,,,,,,,,,,,,,,,,001,1,1,False,False,False,False,2025-01-21_10h30.07.108,inversion_effect,2024.1.0,None,2025-01-21 10h30.14.482682 -0800,
stimuli/practice_stimuli.csv,0.5,5,0.5,3,0.5,0.41,stimuli/inverted_faces/M125.png,stimuli/inverted_faces/M125morph.png,stimuli/inverted_faces/M125.png,2,,,,,,0,0,0,0,0,0,0,0,,,,,,,,,,,,,,,,,7.084103793022223,,,,,,,,,,2.075047888007248,7.064354230009485,7.074399620003533,7.084103793022223,7.613698166998802,7.5813941820233595,7.5814329130225815,upright,7.613698166998802,12.614622909022728,12.598502021020977,12.598564278014237,0.6851236083947154,12.614622909022728,13.323775976023171,13.298143853025977,13.298183412000071,13.323775976023171,13.323775976023171,13.323775976023171,16.3297905230138,16.3297905230138,16.3297905230138,16.314392116997624,left,0,14.146472820022609,0.11443108299863525,16.318201669026166,0.7452336401924872,16.3297905230138,17.129352643009042,17.064468311000383,,,,,,,,,,,,,,,,,,,,,,,,,,,,,,,,,,,,,,,,,,,,,,,,,,,,,001,1,1,False,False,False,False,2025-01-21_10h30.07.108,inversion_effect,2024.1.0,None,2025-01-21 10h30.14.482682 -0800,
stimuli/practice_stimuli.csv,0.5,5,0.5,3,0.5,0.41,stimuli/inverted_faces/F10.png,stimuli/inverted_faces/F10morph.png,stimuli/inverted_faces/F10.png,2,,,,,,0,0,0,0,,,,,0,0,0,0,,,,,,,,,,,,,17.129352643009042,,,,,,,,,,,,17.122899563022656,17.129352643009042,17.636018925026292,17.614972644019872,,inverted,,,,22.632928153005196,0.5466067757624922,22.64750253301463,23.210281417006627,23.182468621002045,,,,,,,,,,,,,26.19988118999754,0.7042276230671047,26.214016323006945,26.99139361199923,26.913154527021106,17.615028075000737,17.636018925026292,22.64750253301463,22.632891271001427,23.182507085002726,23.210281417006627,23.210281417006627,23.210281417006627,26.214016323006945,26.214016323006945,26.214016323006945,26.19887217800715,right,0,24.144709147018148,0.1258935210062191,,,,,,,,,,,,,,,,,,,,,,,,,,,,,,,,,,,,,001,1,1,False,False,False,False,2025-01-21_10h30.07.108,inversion_effect,2024.1.0,None,2025-01-21 10h30.14.482682 -0800,
,,,,,,,,,,,,,,,,,,,,,,,,,,,,,,,,,,,,,,,,,,,,,,,,,,,,,,,,,,,,,,,,,,,,,,,,,,,,,,,,,,,,,,,,,,,,,,,,,,,26.95573695001076,26.99139361199923,31.766961453016847,space,31.748273598001106,None,,,,,,,,,,,,,,,,,,,,,,,,,,,,,,,001,1,1,False,False,False,False,2025-01-21_10h30.07.108,inversion_effect,2024.1.0,None,2025-01-21 10h30.14.482682 -0800,
,,,,,,,,,,,,,,,,,,,,,,,,,,,,,,,,,,,,,,,,,,,,,,,,,,31.76701872801641,36.764085850008996,,,,,,,,,,,,,,,,,,,,,,,,,,,,,,,,,,,,,,,,,,,,,,,,,,,,,,,,,,,,,,,,,,,,,,,,,,,,,,,,,,,,001,1,1,False,False,False,False,2025-01-21_10h30.07.108,inversion_effect,2024.1.0,None,2025-01-21 10h30.14.482682 -0800,
stimuli/inverted_faces/faces_stimuli_UpShort.csv,0,0.5,0.5,3,1,0.41,stimuli/inverted_faces/M28.png,stimuli/inverted_faces/M28morph.png,stimuli/inverted_faces/M28.png,2,faces,short,upright,1,0,,,,,,,,,,,,,0,0,0,0,0,0,0,26,,,,,36.81220489900443,,,,,,,,,,,,36.79475911401096,36.81220489900443,36.81220489900443,36.79550179000944,36.795525029010605,upright,36.81220489900443,37.31279328101664,37.297348156018415,37.29737908800598,0.543852232216535,37.31279328101664,37.876701832021354,37.84826235100627,,,,,,,,,,,,,40.86635751402355,1.0847620539856426,40.87988173501799,41.988811344024725,41.96532008200302,,,,,,,,,,,,,,,,,,,,,,,37.848301331017865,37.876701832021354,37.876701832021354,37.876701832021354,40.87988173501799,40.87988173501799,40.87988173501799,40.86529428200447,right,0,38.493582385999616,0.14524032099870965,,,,,,,,,,,,,,,,,,,001,1,1,False,False,False,False,2025-01-21_10h30.07.108,inversion_effect,2024.1.0,None,2025-01-21 10h30.14.482682 -0800,
stimuli/inverted_faces/faces_stimuli_UpShort.csv,0,0.5,0.5,3,1,0.41,stimuli/inverted_faces/F16.png,stimuli/inverted_faces/F16morph.png,stimuli/inverted_faces/F16.png,2,faces,short,upright,1,0,,,,,,,,,,,,,0,0,0,0,0,1,1,14,,,,,41.988811344024725,,,,,,,,,,,,41.96618077301537,41.988811344024725,41.988811344024725,41.967813561001094,41.96786791700288,upright,41.988811344024725,42.496530841017375,42.48156521402416,42.481620974023826,0.5440660292075026,42.496530841017375,43.05720324401045,43.03193683701102,,,,,,,,,,,,,46.048885469004745,1.1461609572246563,46.062653334025526,47.21655013001873,47.198020808020374,,,,,,,,,,,,,,,,,,,,,,,43.031992490025004,43.05720324401045,43.05720324401045,43.05720324401045,46.062653334025526,46.062653334025526,46.062653334025526,46.04819875000976,right,0,43.87723126501078,0.14165964900166728,,,,,,,,,,,,,,,,,,,001,1,1,False,False,False,False,2025-01-21_10h30.07.108,inversion_effect,2024.1.0,None,2025-01-21 10h30.14.482682 -0800,
stimuli/inverted_faces/faces_stimuli_UpShort.csv,0,0.5,0.5,3,1,0.41,stimuli/inverted_faces/M128.png,stimuli/inverted_faces/M128morph.png,stimuli/inverted_faces/M128.png,2,faces,short,upright,1,0,,,,,,,,,,,,,0,0,0,0,0,2,2,21,,,,,47.21655013001873,,,,,,,,,,,,47.198523234023014,47.21655013001873,47.21655013001873,47.19921531699947,47.199243587005185,upright,47.21655013001873,47.729463353025494,47.71372513400274,47.7137605099997,0.5660784739999833,47.729463353025494,48.306875372014474,48.28177479701117,,,,,,,,,,,,,51.29688363900641,1.2502210964576723,51.312941765005235,52.56842990699806,52.54749448300572,,,,,,,,,,,,,,,,,,,,,,,48.28183364402503,48.306875372014474,48.306875372014474,48.306875372014474,51.312941765005235,51.312941765005235,51.312941765005235,51.296602084010374,right,0,48.94582044801791,0.14252122098696418,,,,,,,,,,,,,,,,,,,001,1,1,False,False,False,False,2025-01-21_10h30.07.108,inversion_effect,2024.1.0,None,2025-01-21 10h30.14.482682 -0800,
stimuli/inverted_faces/faces_stimuli_UpShort.csv,0,0.5,0.5,3,1,0.41,stimuli/inverted_faces/F13.png,stimuli/inverted_faces/F13.png,stimuli/inverted_faces/F13morph.png,1,faces,short,upright,1,0,,,,,,,,,,,,,0,0,0,0,0,3,3,3,,,,,52.56842990699806,,,,,,,,,,,,52.54838305001613,52.56842990699806,52.56842990699806,52.54932310900767,52.549358312011464,upright,52.56842990699806,53.07927518201177,53.06389702402521,53.06393232301343,0.5393505366436442,53.07927518201177,53.6321742029977,53.61256474800757,,,,,,,,,,,,,56.63300846601487,1.032402910724432,56.646410369023215,57.68452776002232,57.66486785601592,,,,,,,,,,,,,,,,,,,,,,,53.61258796401671,53.6321742029977,53.6321742029977,53.6321742029977,56.646410369023215,56.646410369023215,56.646410369023215,56.631942626001546,left,0,54.21973321400583,0.13825601700227708,,,,,,,,,,,,,,,,,,,001,1,1,False,False,False,False,2025-01-21_10h30.07.108,inversion_effect,2024.1.0,None,2025-01-21 10h30.14.482682 -0800,
stimuli/inverted_faces/faces_stimuli_UpShort.csv,0,0.5,0.5,3,1,0.41,stimuli/inverted_faces/F11.png,stimuli/inverted_faces/F11.png,stimuli/inverted_faces/F11morph.png,1,faces,short,upright,1,0,,,,,,,,,,,,,0,0,0,0,0,4,4,1,,,,,57.68452776002232,,,,,,,,,,,,57.665453745023115,57.68452776002232,57.68452776002232,57.66650765101076,57.66654168500099,upright,57.68452776002232,58.196359877998475,58.18231885699788,58.182374378026,0.6760609125918485,58.196359877998475,58.88836830301443,58.865311614004895,,,,,,,,,,,,,61.882357563998085,1.033324044411186,61.896784696000395,62.93501452400233,62.91389525300474,,,,,,,,,,,,,,,,,,,,,,,58.8653506860137,58.88836830301443,58.88836830301443,58.88836830301443,61.896784696000395,61.896784696000395,61.896784696000395,61.881563478003955,left,0,59.63198298201314,0.1373781459988095,,,,,,,,,,,,,,,,,,,001,1,1,False,False,False,False,2025-01-21_10h30.07.108,inversion_effect,2024.1.0,None,2025-01-21 10h30.14.482682 -0800,
stimuli/inverted_faces/faces_stimuli_UpShort.csv,0,0.5,0.5,3,1,0.41,stimuli/inverted_faces/F7.png,stimuli/inverted_faces/F7.png,stimuli/inverted_faces/F7morph.png,1,faces,short,upright,1,0,,,,,,,,,,,,,0,0,0,0,0,5,5,6,,,,,62.93501452400233,,,,,,,,,,,,62.91447312600212,62.93501452400233,62.93501452400233,62.9154239060008,62.915458909003064,upright,62.93501452400233,63.44646000300418,63.43050821500947,63.4305465540092,0.648295224569406,63.44646000300418,64.10445116300252,64.0801771270053,,,,,,,,,,,,,67.09675110701937,1.0996220943470019,67.1124979990127,68.88762164002401,68.19604138901923,,,,,,,,,,,,,,,,,,,,,,,64.08021644002292,64.10445116300252,64.10445116300252,64.10445116300252,67.1124979990127,67.1124979990127,67.1124979990127,67.09626692600432,left,0,64.86041240900522,0.1447224260191433,,,,,,,,,,,,,,,,,,,001,1,1,False,False,False,False,2025-01-21_10h30.07.108,inversion_effect,2024.1.0,None,2025-01-21 10h30.14.482682 -0800,
stimuli/inverted_faces/faces_stimuli_UpShort.csv,0,0.5,0.5,3,1,0.41,stimuli/inverted_faces/M130.png,stimuli/inverted_faces/M130morph.png,stimuli/inverted_faces/M130.png,2,faces,short,upright,1,0,,,,,,,,,,,,,0,0,0,0,0,6,6,22,,,,,68.88762164002401,,,,,,,,,,,,68.19645428401418,68.88762164002401,68.88762164002401,68.19707531301538,68.19709820000571,upright,68.88762164002401,69.39596681500552,69.38075254601426,69.38079038300202,0.6820012427102201,69.39596681500552,70.08919433000847,70.06454954799847,,,,,,,,,,,,,73.0792242870084,1.0584332406696952,73.09499741499894,74.1755133609986,74.14529637401574,,,,,,,,,,,,,,,,,,,,,,,70.06458508400829,70.08919433000847,70.08919433000847,70.08919433000847,73.09499741499894,73.09499741499894,73.09499741499894,73.07887183999992,right,0,70.75250605301699,0.11823910899693146,,,,,,,,,,,,,,,,,,,001,1,1,False,False,False,False,2025-01-21_10h30.07.108,inversion_effect,2024.1.0,None,2025-01-21 10h30.14.482682 -0800,
stimuli/inverted_faces/faces_stimuli_UpShort.csv,0,0.5,0.5,3,1,0.41,stimuli/inverted_faces/M31.png,stimuli/inverted_faces/M31morph.png,stimuli/inverted_faces/M31.png,2,faces,short,upright,1,0,,,,,,,,,,,,,0,0,0,0,0,7,7,27,,,,,74.1755133609986,,,,,,,,,,,,74.14554705802584,74.1755133609986,74.1755133609986,74.14585110201733,74.14586111201788,upright,74.1755133609986,74.67937743401853,74.66455549301463,74.66459165001288,0.583457365783951,74.67937743401853,75.27318998501869,75.24750080402009,,,,,,,,,,,,,78.2641576550086,1.0624743545417903,78.27977604500484,79.35131484700833,79.33118900100817,,,,,,,,,,,,,,,,,,,,,,,75.24753924200195,75.27318998501869,75.27318998501869,75.27318998501869,78.27977604500484,78.27977604500484,78.27977604500484,78.26346529601142,right,0,76.65266676101601,0.13327895500697196,,,,,,,,,,,,,,,,,,,001,1,1,False,False,False,False,2025-01-21_10h30.07.108,inversion_effect,2024.1.0,None,2025-01-21 10h30.14.482682 -0800,
stimuli/inverted_faces/faces_stimuli_UpShort.csv,0,0.5,0.5,3,1,0.41,stimuli/inverted_faces/M131.png,stimuli/inverted_faces/M131morph.png,stimuli/inverted_faces/M131.png,2,faces,short,upright,1,0,,,,,,,,,,,,,0,0,0,0,0,8,8,23,,,,,79.35131484700833,,,,,,,,,,,,79.33206578000681,79.35131484700833,79.35131484700833,79.33291213400662,79.3329459130182,upright,79.35131484700833,79.86241127800895,79.84779871001956,79.8478544880054,0.6936218932257814,79.86241127800895,80.56742347602267,80.54628479501116,,,,,,,,,,,,,83.56215544501902,1.2669081909855349,83.57799683100893,84.84574151100242,84.82952770200791,,,,,,,,,,,,,,,,,,,,,,,80.54631336699822,80.56742347602267,80.56742347602267,80.56742347602267,83.57799683100893,83.57799683100893,83.57799683100893,83.56187235700781,left,0,81.42994851700496,0.13296359701780602,,,,,,,,,,,,,,,,,,,001,1,1,False,False,False,False,2025-01-21_10h30.07.108,inversion_effect,2024.1.0,None,2025-01-21 10h30.14.482682 -0800,
stimuli/inverted_faces/faces_stimuli_UpShort.csv,0,0.5,0.5,3,1,0.41,stimuli/inverted_faces/M129.png,stimuli/inverted_faces/M129.png,stimuli/inverted_faces/M129morph.png,1,faces,short,upright,1,0,,,,,,,,,,,,,0,0,0,0,0,9,9,10,,,,,84.84574151100242,,,,,,,,,,,,84.82992565599852,84.84574151100242,84.84574151100242,84.83041903399862,84.83043508202536,upright,84.84574151100242,85.34570760201314,85.33095819002483,85.3310048940184,0.5979060804612932,85.34570760201314,85.9532350890222,85.93036967801163,,,,,,,,,,,,,88.94754977300181,1.291047542993061,88.9626236470067,90.26770104499883,90.24748426000588,,,,,,,,,,,,,,,,,,,,,,,85.93040841602487,85.9532350890222,85.9532350890222,85.9532350890222,88.9626236470067,88.9626236470067,88.9626236470067,88.94683170301141,left,0,86.67776076600421,0.13125687901629135,,,,,,,,,,,,,,,,,,,001,1,1,False,False,False,False,2025-01-21_10h30.07.108,inversion_effect,2024.1.0,None,2025-01-21 10h30.14.482682 -0800,
stimuli/inverted_faces/faces_stimuli_UpShort.csv,0,0.5,0.5,3,1,0.41,stimuli/inverted_faces/M122.png,stimuli/inverted_faces/M122.png,stimuli/inverted_faces/M122morph.png,1,faces,short,upright,1,0,,,,,,,,,,,,,0,0,0,0,0,10,10,8,,,,,90.26770104499883,,,,,,,,,,,,90.24807311300538,90.26770104499883,90.26770104499883,90.24900192502537,90.24903734101099,upright,90.26770104499883,90.77995319201727,90.76529245602433,90.76534698400064,0.6775480901875638,90.77995319201727,91.47162356501212,91.44871633499861,,,,,,,,,,,,,94.46475826500682,1.2159648263051608,94.48016831901623,95.70241816001362,95.68079649002175,,,,,,,,,,,,,,,,,,,,,,,91.4487549890182,91.47162356501212,91.47162356501212,91.47162356501212,94.48016831901623,94.48016831901623,94.48016831901623,94.46407133401954,left,0,92.20966305100592,0.13246872700983658,,,,,,,,,,,,,,,,,,,001,1,1,False,False,False,False,2025-01-21_10h30.07.108,inversion_effect,2024.1.0,None,2025-01-21 10h30.14.482682 -0800,
stimuli/inverted_faces/faces_stimuli_UpShort.csv,0,0.5,0.5,3,1,0.41,stimuli/inverted_faces/M126.png,stimuli/inverted_faces/M126.png,stimuli/inverted_faces/M126morph.png,1,faces,short,upright,1,0,,,,,,,,,,,,,0,0,0,0,0,11,11,9,,,,,95.70241816001362,,,,,,,,,,,,95.68137587001547,95.70241816001362,95.70241816001362,95.68222907601739,95.68226886499906,upright,95.70241816001362,96.21309636402293,96.19818163200398,96.19822130500688,0.6481952048383282,96.21309636402293,96.87026576101198,96.84778002701933,,,,,,,,,,,,,99.86516299901996,1.0007012238068569,99.87921615701634,100.88368124701083,100.86357953300467,,,,,,,,,,,,,,,,,,,,,,,96.84781836500042,96.87026576101198,96.87026576101198,96.87026576101198,99.87921615701634,99.87921615701634,99.87921615701634,99.8642227750097,left,0,97.54291130500496,0.10403396800393239,,,,,,,,,,,,,,,,,,,001,1,1,False,False,False,False,2025-01-21_10h30.07.108,inversion_effect,2024.1.0,None,2025-01-21 10h30.14.482682 -0800,
stimuli/inverted_faces/faces_stimuli_UpShort.csv,0,0.5,0.5,3,1,0.41,stimuli/inverted_faces/M32.png,stimuli/inverted_faces/M32.png,stimuli/inverted_faces/M32morph.png,1,faces,short,upright,1,0,,,,,,,,,,,,,0,0,0,0,0,12,12,12,,,,,100.88368124701083,,,,,,,,,,,,100.8641560760152,100.88368124701083,100.88368124701083,100.86495228201966,100.86498625201057,upright,100.88368124701083,101.39546319100191,101.3798455260112,101.37988289500936,0.5104636442135649,101.39546319100191,101.92033465800341,101.89719326901832,,,,,,,,,,,,,104.91266490600538,1.082633042316645,104.92779756401433,106.01750989301945,105.9972021690046,,,,,,,,,,,,,,,,,,,,,,,101.89723247999791,101.92033465800341,101.92033465800341,101.92033465800341,104.92779756401433,104.92779756401433,104.92779756401433,104.91237138301949,left,0,103.08545402402524,0.13977440298185684,,,,,,,,,,,,,,,,,,,001,1,1,False,False,False,False,2025-01-21_10h30.07.108,inversion_effect,2024.1.0,None,2025-01-21 10h30.14.482682 -0800,
stimuli/inverted_faces/faces_stimuli_UpShort.csv,0,0.5,0.5,3,1,0.41,stimuli/inverted_faces/F9.png,stimuli/inverted_faces/F9morph.png,stimuli/inverted_faces/F9.png,2,faces,short,upright,1,0,,,,,,,,,,,,,0,0,0,0,0,13,13,16,,,,,106.01750989301945,,,,,,,,,,,,105.99778188500204,106.01750989301945,106.01750989301945,105.99883387301816,105.99886889901245,upright,106.01750989301945,106.52858624199871,106.51387049301411,106.51390990900109,0.6104187732000006,106.52858624199871,107.15560390500468,107.1309139910154,,,,,,,,,,,,,110.14815065902076,1.2750163211068384,110.16205781200551,111.4495971389988,111.42969412001548,,,,,,,,,,,,,,,,,,,,,,,107.13095623999834,107.15560390500468,107.15560390500468,107.15560390500468,110.16205781200551,110.16205781200551,110.16205781200551,110.1474476410076,right,0,107.94367594600772,0.1291836960008368,,,,,,,,,,,,,,,,,,,001,1,1,False,False,False,False,2025-01-21_10h30.07.108,inversion_effect,2024.1.0,None,2025-01-21 10h30.14.482682 -0800,
stimuli/inverted_faces/faces_stimuli_UpShort.csv,0,0.5,0.5,3,1,0.41,stimuli/inverted_faces/M22.png,stimuli/inverted_faces/M22morph.png,stimuli/inverted_faces/M22.png,2,faces,short,upright,1,0,,,,,,,,,,,,,0,0,0,0,0,14,14,24,,,,,111.4495971389988,,,,,,,,,,,,111.43025599900284,111.4495971389988,111.4495971389988,111.43104498600587,111.43107973600854,upright,111.4495971389988,111.96321098101907,111.947411724017,111.94745015099761,0.5413810266760867,111.96321098101907,112.52113855400239,112.49700848202338,,,,,,,,,,,,,115.51454196101986,1.2562700676230385,115.52926110601402,116.80085441601113,116.78158253102447,,,,,,,,,,,,,,,,,,,,,,,112.49704401401686,112.52113855400239,112.52113855400239,112.52113855400239,115.52926110601402,115.52926110601402,115.52926110601402,115.51384430401959,right,0,113.60442104699905,0.1261694030254148,,,,,,,,,,,,,,,,,,,001,1,1,False,False,False,False,2025-01-21_10h30.07.108,inversion_effect,2024.1.0,None,2025-01-21 10h30.14.482682 -0800,
stimuli/inverted_faces/faces_stimuli_UpShort.csv,0,0.5,0.5,3,1,0.41,stimuli/inverted_faces/F15.png,stimuli/inverted_faces/F15.png,stimuli/inverted_faces/F15morph.png,1,faces,short,upright,1,0,,,,,,,,,,,,,0,0,0,0,0,15,15,4,,,,,116.80085441601113,,,,,,,,,,,,116.78248152000015,116.80085441601113,116.80085441601113,116.78350080701057,116.7835351540125,upright,116.80085441601113,117.31191976502305,117.29685485700611,117.29689282100298,0.5998473827383171,117.31191976502305,117.92006586599746,117.89698098701774,,,,,,,,,,,,,120.91400646101101,1.2430806744375378,120.9282996620168,122.1799600040249,122.16193956200732,,,,,,,,,,,,,,,,,,,,,,,117.89701893500751,117.92006586599746,117.92006586599746,117.92006586599746,120.9282996620168,120.9282996620168,120.9282996620168,120.9133086290094,left,0,118.72079490500619,0.10978581800009124,,,,,,,,,,,,,,,,,,,001,1,1,False,False,False,False,2025-01-21_10h30.07.108,inversion_effect,2024.1.0,None,2025-01-21 10h30.14.482682 -0800,
stimuli/inverted_faces/faces_stimuli_UpShort.csv,0,0.5,0.5,3,1,0.41,stimuli/inverted_faces/F18.png,stimuli/inverted_faces/F18.png,stimuli/inverted_faces/F18morph.png,1,faces,short,upright,1,0,,,,,,,,,,,,,0,0,0,0,0,16,16,5,,,,,122.1799600040249,,,,,,,,,,,,122.1621821570152,122.1799600040249,122.1799600040249,122.1626196760044,122.16263163200347,upright,122.1799600040249,122.69548366800882,122.6801652040158,122.68022151102195,0.5831006381443471,122.69548366800882,123.281134622026,123.26203443302074,,,,,,,,,,,,,126.26571459401748,1.0565821705797216,126.27939740702277,127.34638875702512,127.32919999500155,,,,,,,,,,,,,,,,,,,,,,,123.26205781902536,123.281134622026,123.281134622026,123.281134622026,126.27939740702277,126.27939740702277,126.27939740702277,126.2650141880149,left,0,124.06460498701199,0.09418783101136796,,,,,,,,,,,,,,,,,,,001,1,1,False,False,False,False,2025-01-21_10h30.07.108,inversion_effect,2024.1.0,None,2025-01-21 10h30.14.482682 -0800,
stimuli/inverted_faces/faces_stimuli_UpShort.csv,0,0.5,0.5,3,1,0.41,stimuli/inverted_faces/M121.png,stimuli/inverted_faces/M121.png,stimuli/inverted_faces/M121morph.png,1,faces,short,upright,1,0,,,,,,,,,,,,,0,0,0,0,0,17,17,7,,,,,127.34638875702512,,,,,,,,,,,,127.32956912301597,127.34638875702512,127.34638875702512,127.3302592660184,127.33027997601312,upright,127.34638875702512,127.84568638601922,127.83043977300986,127.83047445400734,0.6779387641225749,127.84568638601922,128.53761844302062,128.51447905300301,,,,,,,,,,,,,131.5316898059973,1.2078874268123436,131.54616719900514,132.76933057702263,132.74867233200348,,,,,,,,,,,,,,,,,,,,,,,128.51452659600182,128.53761844302062,128.53761844302062,128.53761844302062,131.54616719900514,131.54616719900514,131.54616719900514,131.53096865600673,left,0,129.59189747300115,0.06652331599616446,,,,,,,,,,,,,,,,,,,001,1,1,False,False,False,False,2025-01-21_10h30.07.108,inversion_effect,2024.1.0,None,2025-01-21 10h30.14.482682 -0800,
stimuli/inverted_faces/faces_stimuli_UpShort.csv,0,0.5,0.5,3,1,0.41,stimuli/inverted_faces/M35.png,stimuli/inverted_faces/M35.png,stimuli/inverted_faces/M35morph.png,1,faces,short,upright,1,0,,,,,,,,,,,,,0,0,0,0,0,18,18,13,,,,,132.76933057702263,,,,,,,,,,,,132.7495243420126,132.76933057702263,132.76933057702263,132.75109327601967,132.75113478000276,upright,132.76933057702263,133.27746231501806,133.26206576201366,133.26209305302473,0.550982615768323,133.27746231501806,133.83204265800305,133.81222934401012,,,,,,,,,,,,,136.83045526701608,1.0893518794018207,136.8456494740094,137.95027007799945,137.93024563600193,,,,,,,,,,,,,,,,,,,,,,,133.81225328100845,133.83204265800305,133.83204265800305,133.83204265800305,136.8456494740094,136.8456494740094,136.8456494740094,136.82974527499755,left,0,134.85840223901323,0.11127683700760826,,,,,,,,,,,,,,,,,,,001,1,1,False,False,False,False,2025-01-21_10h30.07.108,inversion_effect,2024.1.0,None,2025-01-21 10h30.14.482682 -0800,
stimuli/inverted_faces/faces_stimuli_UpShort.csv,0,0.5,0.5,3,1,0.41,stimuli/inverted_faces/M123.png,stimuli/inverted_faces/M123morph.png,stimuli/inverted_faces/M123.png,2,faces,short,upright,1,0,,,,,,,,,,,,,0,0,0,0,0,19,19,18,,,,,137.95027007799945,,,,,,,,,,,,137.93084059402463,137.95027007799945,137.95027007799945,137.93187436301378,137.93190379699809,upright,137.95027007799945,138.4625473540218,138.4468307220086,138.4468691110087,0.6998251078161939,138.4625473540218,139.16900013500708,139.14658255199902,,,,,,,,,,,,,142.16435416601598,1.2343645450386498,142.17886529202224,143.4293362990138,143.4127804080199,,,,,,,,,,,,,,,,,,,,,,,139.14662166300695,139.16900013500708,139.16900013500708,139.16900013500708,142.17886529202224,142.17886529202224,142.17886529202224,142.1634126380086,right,0,139.76303779301816,0.12606353999581188,,,,,,,,,,,,,,,,,,,001,1,1,False,False,False,False,2025-01-21_10h30.07.108,inversion_effect,2024.1.0,None,2025-01-21 10h30.14.482682 -0800,
stimuli/inverted_faces/faces_stimuli_UpShort.csv,0,0.5,0.5,3,1,0.41,stimuli/inverted_faces/M125.png,stimuli/inverted_faces/M125morph.png,stimuli/inverted_faces/M125.png,2,faces,short,upright,1,0,,,,,,,,,,,,,0,0,0,0,0,20,20,19,,,,,143.4293362990138,,,,,,,,,,,,143.4133683940163,143.4293362990138,143.4293362990138,143.4142804040166,143.414315506001,upright,143.4293362990138,143.94529323102324,143.9303184270102,143.93037646301673,0.6288750784773817,143.94529323102324,144.5841561940033,144.5632071350119,,,,,,,,,,,,,147.5816587320005,1.0552182952190843,147.5948707560019,148.66623365602572,148.64641623100033,,,,,,,,,,,,,,,,,,,,,,,144.56324664701242,144.5841561940033,144.5841561940033,144.5841561940033,147.5948707560019,147.5948707560019,147.5948707560019,147.58059736900032,right,0,145.2821642390045,0.10982708699884824,,,,,,,,,,,,,,,,,,,001,1,1,False,False,False,False,2025-01-21_10h30.07.108,inversion_effect,2024.1.0,None,2025-01-21 10h30.14.482682 -0800,
stimuli/inverted_faces/faces_stimuli_UpShort.csv,0,0.5,0.5,3,1,0.41,stimuli/inverted_faces/M21.png,stimuli/inverted_faces/M21.png,stimuli/inverted_faces/M21morph.png,1,faces,short,upright,1,0,,,,,,,,,,,,,0,0,0,0,0,21,21,11,,,,,148.66623365602572,,,,,,,,,,,,148.64722275501117,148.66623365602572,148.66623365602572,148.64811769401422,148.64815193100367,upright,148.66623365602572,149.17883128102403,149.16355934302555,149.16359512801864,0.6521435498215615,149.17883128102403,149.85406238402356,149.83036747801816,,,,,,,,,,,,,152.84662748902338,1.2270479936827183,152.86138452301384,154.09687192100682,154.08013534301426,,,,,,,,,,,,,,,,,,,,,,,149.8304345770157,149.85406238402356,149.85406238402356,149.85406238402356,152.86138452301384,152.86138452301384,152.86138452301384,152.8459238030191,left,0,150.60320161201525,0.07432181399781257,,,,,,,,,,,,,,,,,,,001,1,1,False,False,False,False,2025-01-21_10h30.07.108,inversion_effect,2024.1.0,None,2025-01-21 10h30.14.482682 -0800,
stimuli/inverted_faces/faces_stimuli_UpShort.csv,0,0.5,0.5,3,1,0.41,stimuli/inverted_faces/F10.png,stimuli/inverted_faces/F10.png,stimuli/inverted_faces/F10morph.png,1,faces,short,upright,1,0,,,,,,,,,,,,,0,0,0,0,0,22,22,0,,,,,154.09687192100682,,,,,,,,,,,,154.0809792910004,154.09687192100682,154.09687192100682,154.0822387180233,154.08227146600257,upright,154.09687192100682,154.61207317802473,154.59647668301477,154.5965145250084,0.5992232485479966,154.61207317802473,155.21585007902468,155.19561112500378,,,,,,,,,,,,,158.21299091001856,1.270125708924868,158.2279014220112,159.51711236301344,159.49692934201448,,,,,,,,,,,,,,,,,,,,,,,155.19564718499896,155.21585007902468,155.21585007902468,155.21585007902468,158.2279014220112,158.2279014220112,158.2279014220112,158.21230525700958,left,0,155.90417177701602,0.10591923800529912,,,,,,,,,,,,,,,,,,,001,1,1,False,False,False,False,2025-01-21_10h30.07.108,inversion_effect,2024.1.0,None,2025-01-21 10h30.14.482682 -0800,
stimuli/inverted_faces/faces_stimuli_UpShort.csv,0,0.5,0.5,3,1,0.41,stimuli/inverted_faces/M119.png,stimuli/inverted_faces/M119morph.png,stimuli/inverted_faces/M119.png,2,faces,short,upright,1,0,,,,,,,,,,,,,0,0,0,0,0,23,23,17,,,,,159.51711236301344,,,,,,,,,,,,159.49751082100556,159.51711236301344,159.51711236301344,159.49843959702412,159.49847476099967,upright,159.51711236301344,160.0285961390182,160.01312543600216,160.0131643700006,0.5407900006385322,160.0285961390182,160.58167136501288,160.56197690000408,,,,,,,,,,,,,163.57831770202029,1.1645450116527145,163.5943534920225,164.76841327402508,164.7474832900043,,,,,,,,,,,,,,,,,,,,,,,160.56200486799935,160.58167136501288,160.58167136501288,160.58167136501288,163.5943534920225,163.5943534920225,163.5943534920225,163.5780566620233,right,0,161.119662171026,0.11415534999105148,,,,,,,,,,,,,,,,,,,001,1,1,False,False,False,False,2025-01-21_10h30.07.108,inversion_effect,2024.1.0,None,2025-01-21 10h30.14.482682 -0800,
stimuli/inverted_faces/faces_stimuli_UpShort.csv,0,0.5,0.5,3,1,0.41,stimuli/inverted_faces/F12.png,stimuli/inverted_faces/F12.png,stimuli/inverted_faces/F12morph.png,1,faces,short,upright,1,0,,,,,,,,,,,,,0,0,0,0,0,24,24,2,,,,,164.76841327402508,,,,,,,,,,,,164.7481197490124,164.76841327402508,164.76841327402508,164.74909643901628,164.74913143902086,upright,164.76841327402508,165.27921567001613,165.2636602880084,165.26371653500246,0.6436242528523394,165.27921567001613,165.9378764120047,165.9137884050142,,,,,,,,,,,,,168.92919921301655,1.1883581731761244,168.94487474599737,170.15081468000426,170.1298901530099,,,,,,,,,,,,,,,,,,,,,,,165.91382734800573,165.9378764120047,165.9378764120047,165.9378764120047,168.94487474599737,168.94487474599737,168.94487474599737,168.92852316700737,left,0,166.58200041000964,0.0779587629949674,,,,,,,,,,,,,,,,,,,001,1,1,False,False,False,False,2025-01-21_10h30.07.108,inversion_effect,2024.1.0,None,2025-01-21 10h30.14.482682 -0800,
stimuli/inverted_faces/faces_stimuli_UpShort.csv,0,0.5,0.5,3,1,0.41,stimuli/inverted_faces/M25.png,stimuli/inverted_faces/M25morph.png,stimuli/inverted_faces/M25.png,2,faces,short,upright,1,0,,,,,,,,,,,,,0,0,0,0,0,25,25,25,,,,,170.15081468000426,,,,,,,,,,,,170.13079576200107,170.15081468000426,170.15081468000426,170.13204821301042,170.1320811980113,upright,170.15081468000426,170.66134611301823,170.6466426460247,170.64667990000453,0.5511609210426268,170.66134611301823,171.22045093702036,171.19623878301354,,,,,,,,,,,,,174.2132302300015,1.149201356622255,174.22810400801245,175.3832824730198,175.3630676230241,,,,,,,,,,,,,,,,,,,,,,,171.19627698202385,171.22045093702036,171.22045093702036,171.22045093702036,174.22810400801245,174.22810400801245,174.22810400801245,174.21255673700944,right,0,171.81309234999935,0.10076259900233708,,,,,,,,,,,,,,,,,,,001,1,1,False,False,False,False,2025-01-21_10h30.07.108,inversion_effect,2024.1.0,None,2025-01-21 10h30.14.482682 -0800,
stimuli/inverted_faces/faces_stimuli_UpShort.csv,0,0.5,0.5,3,1,0.41,stimuli/inverted_faces/F21.png,stimuli/inverted_faces/F21morph.png,stimuli/inverted_faces/F21.png,2,faces,short,upright,1,0,,,,,,,,,,,,,0,0,0,0,0,26,26,15,,,,,175.3832824730198,,,,,,,,,,,,175.36364289402263,175.3832824730198,175.3832824730198,175.36456661802367,175.364610774006,upright,175.3832824730198,175.89484830302536,175.87972750200424,175.8797715830151,0.6811914877800047,175.89484830302536,176.58827137801563,176.56304217301658,,,,,,,,,,,,,179.58034801701433,1.2477197351571592,179.59468175499933,180.84994652299793,180.8296182640188,,,,,,,,,,,,,,,,,,,,,,,176.56308094601263,176.58827137801563,176.58827137801563,176.58827137801563,179.59468175499933,179.59468175499933,179.59468175499933,179.57941916401614,right,0,177.45464823200018,0.10963315202388912,,,,,,,,,,,,,,,,,,,001,1,1,False,False,False,False,2025-01-21_10h30.07.108,inversion_effect,2024.1.0,None,2025-01-21 10h30.14.482682 -0800,
stimuli/inverted_faces/faces_stimuli_UpShort.csv,0,0.5,0.5,3,1,0.41,stimuli/inverted_faces/M127.png,stimuli/inverted_faces/M127morph.png,stimuli/inverted_faces/M127.png,2,faces,short,upright,1,0,,,,,,,,,,,,,0,0,0,0,0,27,27,20,,,,,180.84994652299793,,,,,,,,,,,,180.83018938501482,180.84994652299793,180.84994652299793,180.83110233899788,180.83113567801774,upright,180.84994652299793,181.36122587000136,181.346460175002,181.34649586700834,0.5599474825225766,181.36122587000136,181.93773681900348,181.91240417800145,,,,,,,,,,,,,184.930538361019,1.0460248612060197,184.9449396530108,186.06376036501024,185.9796812190034,,,,,,,,,,,,,,,,,,,,,,,181.91244266802096,181.93773681900348,181.93773681900348,181.93773681900348,184.9449396530108,184.9449396530108,184.9449396530108,184.92978771502385,right,0,182.59486960800132,0.11014686201815493,,,,,,,,,,,,,,,,,,,001,1,1,False,False,False,False,2025-01-21_10h30.07.108,inversion_effect,2024.1.0,None,2025-01-21 10h30.14.482682 -0800,
stimuli/inverted_faces/faces_stimuli_InvShort.csv,0,0.5,0.5,3,1,0.41,stimuli/inverted_faces/M131.png,stimuli/inverted_faces/M131.png,stimuli/inverted_faces/M131morph.png,1,faces,short,inverted,0,1,,,,,,,,,,,,,0,1,1,1,,,,,0,0,0,8,188.02691811701516,,,,,,,,,,,,188.0157609450107,188.02691811701516,188.02691811701516,188.01640973001486,,inverted,,,,188.51256416502292,0.6387987134786531,188.5276439000154,189.18602192401886,189.1622633250081,,,,,,,,,,,,,192.18054024199955,1.2861519330153623,192.1942486790067,193.4963904430042,193.47920462000184,188.01642997100134,188.02691811701516,188.5276439000154,188.512525077007,,,,,,,,,,,,,,,,,,,,,,,,,,,,,,,186.05495954700746,186.06376036501024,187.99513400200522,189.16230235400144,189.18602192401886,189.18602192401886,189.18602192401886,192.1942486790067,192.1942486790067,192.1942486790067,192.17950640100753,left,0,190.02055231900886,0.0932114630122669,,,,001,1,1,False,False,False,False,2025-01-21_10h30.07.108,inversion_effect,2024.1.0,None,2025-01-21 10h30.14.482682 -0800,
stimuli/inverted_faces/faces_stimuli_InvShort.csv,0,0.5,0.5,3,1,0.41,stimuli/inverted_faces/M119.png,stimuli/inverted_faces/M119.png,stimuli/inverted_faces/M119morph.png,1,faces,short,inverted,0,1,,,,,,,,,,,,,0,1,1,1,,,,,0,1,1,3,193.4963904430042,,,,,,,,,,,,193.4800638630113,193.4963904430042,193.4963904430042,193.4816345840227,,inverted,,,,193.99611969600664,0.6202187825838362,194.01047926800675,194.64880857002572,194.62845963201835,,,,,,,,,,,,,197.6482007940067,1.0778683432945941,197.66265247602132,198.74480756101548,198.72892833000515,193.48166768302326,193.4963904430042,194.01047926800675,193.99606270500226,,,,,,,,,,,,,,,,,,,,,,,,,,,,,,,,,,194.6284991420107,194.64880857002572,194.64880857002572,194.64880857002572,197.66265247602132,197.66265247602132,197.66265247602132,197.64749600100913,right,0,196.13581825900474,0.09371742501389235,,,,001,1,1,False,False,False,False,2025-01-21_10h30.07.108,inversion_effect,2024.1.0,None,2025-01-21 10h30.14.482682 -0800,
stimuli/inverted_faces/faces_stimuli_InvShort.csv,0,0.5,0.5,3,1,0.41,stimuli/inverted_faces/M125.png,stimuli/inverted_faces/M125morph.png,stimuli/inverted_faces/M125.png,2,faces,short,inverted,0,1,,,,,,,,,,,,,0,1,1,1,,,,,0,2,2,21,198.74480756101548,,,,,,,,,,,,198.72950471600052,198.74480756101548,198.74480756101548,198.73039358700044,,inverted,,,,199.2292434630217,0.6617788544598845,199.24528108999948,199.91713735100348,199.89694669801975,,,,,,,,,,,,,202.9148541270115,1.133297849007233,202.92833802400855,204.063162439008,204.04557172601926,198.73042748702574,198.74480756101548,199.24528108999948,199.22920430501108,,,,,,,,,,,,,,,,,,,,,,,,,,,,,,,,,,199.89701025700197,199.91713735100348,199.91713735100348,199.91713735100348,202.92833802400855,202.92833802400855,202.92833802400855,202.91413213001215,left,0,200.6155392230139,0.12221450501237996,,,,001,1,1,False,False,False,False,2025-01-21_10h30.07.108,inversion_effect,2024.1.0,None,2025-01-21 10h30.14.482682 -0800,
stimuli/inverted_faces/faces_stimuli_InvShort.csv,0,0.5,0.5,3,1,0.41,stimuli/inverted_faces/F10.png,stimuli/inverted_faces/F10.png,stimuli/inverted_faces/F10morph.png,1,faces,short,inverted,0,1,,,,,,,,,,,,,0,1,1,1,,,,,0,3,3,13,204.063162439008,,,,,,,,,,,,204.0461754950229,204.063162439008,204.063162439008,204.04708909301553,,inverted,,,,204.56208698599949,0.5694024137758947,204.57766021799762,205.16521927001304,205.14544152401504,,,,,,,,,,,,,208.163439905009,1.2822421744609276,208.17747271500411,209.4632238339982,209.44602002901956,204.0471306090185,204.063162439008,204.57766021799762,204.56204999799957,,,,,,,,,,,,,,,,,,,,,,,,,,,,,,,,,,205.14548006700352,205.16521927001304,205.16521927001304,205.16521927001304,208.17747271500411,208.17747271500411,208.17747271500411,208.1628560280078,right,0,205.6504577040032,0.10292662400752306,,,,001,1,1,False,False,False,False,2025-01-21_10h30.07.108,inversion_effect,2024.1.0,None,2025-01-21 10h30.14.482682 -0800,
stimuli/inverted_faces/faces_stimuli_InvShort.csv,0,0.5,0.5,3,1,0.41,stimuli/inverted_faces/F13.png,stimuli/inverted_faces/F13morph.png,stimuli/inverted_faces/F13.png,2,faces,short,inverted,0,1,,,,,,,,,,,,,0,1,1,1,,,,,0,4,4,16,209.4632238339982,,,,,,,,,,,,209.44665216800058,209.4632238339982,209.4632238339982,209.44749626802513,,inverted,,,,209.96214927002438,0.6554072859031539,209.9782807849988,210.6488929160114,210.62899643401033,,,,,,,,,,,,,213.64671016600914,1.055803857470612,213.66055343102198,214.7296584190044,214.71186781101278,209.44752446599887,209.4632238339982,209.9782807849988,209.96210920801968,,,,,,,,,,,,,,,,,,,,,,,,,,,,,,,,,,210.62903528602328,210.6488929160114,210.6488929160114,210.6488929160114,213.66055343102198,213.66055343102198,213.66055343102198,213.64598461100832,right,0,211.23105875501642,0.08530115699977614,,,,001,1,1,False,False,False,False,2025-01-21_10h30.07.108,inversion_effect,2024.1.0,None,2025-01-21 10h30.14.482682 -0800,
stimuli/inverted_faces/faces_stimuli_InvShort.csv,0,0.5,0.5,3,1,0.41,stimuli/inverted_faces/M127.png,stimuli/inverted_faces/M127morph.png,stimuli/inverted_faces/M127.png,2,faces,short,inverted,0,1,,,,,,,,,,,,,0,1,1,1,,,,,0,5,5,23,214.7296584190044,,,,,,,,,,,,214.712443129014,214.7296584190044,214.7296584190044,214.71343249001075,,inverted,,,,215.22829925399856,0.5949011126733482,215.24315683500026,215.8494005970133,215.8294392140233,,,,,,,,,,,,,218.84572000001208,1.1008198590404883,218.86100464401534,219.97935298501397,219.96179758702056,214.71346842800267,214.7296584190044,215.24315683500026,215.22826470099972,,,,,,,,,,,,,,,,,,,,,,,,,,,,,,,,,,215.82947735799826,215.8494005970133,215.8494005970133,215.8494005970133,218.86100464401534,218.86100464401534,218.86100464401534,218.8450005199993,right,0,216.46447698102565,0.08866642898647115,,,,001,1,1,False,False,False,False,2025-01-21_10h30.07.108,inversion_effect,2024.1.0,None,2025-01-21 10h30.14.482682 -0800,
stimuli/inverted_faces/faces_stimuli_InvShort.csv,0,0.5,0.5,3,1,0.41,stimuli/inverted_faces/M123.png,stimuli/inverted_faces/M123.png,stimuli/inverted_faces/M123morph.png,1,faces,short,inverted,0,1,,,,,,,,,,,,,0,1,1,1,,,,,0,6,6,5,219.97935298501397,,,,,,,,,,,,219.96237516400288,219.97935298501397,219.97935298501397,219.9635148110101,,inverted,,,,220.47799282800406,0.5279539735054527,220.4942359640263,221.03008698200574,221.01128036601585,,,,,,,,,,,,,224.03034923999803,1.0572233450558874,224.04438648102223,225.11150593901402,225.09507548602414,219.9635486000043,219.97935298501397,220.4942359640263,220.4779524860205,,,,,,,,,,,,,,,,,,,,,,,,,,,,,,,,,,221.01131829700898,221.03008698200574,221.03008698200574,221.03008698200574,224.04438648102223,224.04438648102223,224.04438648102223,224.02941110901884,left,0,221.64741327500087,0.12163900199811906,,,,001,1,1,False,False,False,False,2025-01-21_10h30.07.108,inversion_effect,2024.1.0,None,2025-01-21 10h30.14.482682 -0800,
stimuli/inverted_faces/faces_stimuli_InvShort.csv,0,0.5,0.5,3,1,0.41,stimuli/inverted_faces/M22.png,stimuli/inverted_faces/M22.png,stimuli/inverted_faces/M22morph.png,1,faces,short,inverted,0,1,,,,,,,,,,,,,0,1,1,1,,,,,0,7,7,9,225.11150593901402,,,,,,,,,,,,225.0956903800252,225.11150593901402,225.11150593901402,225.09682312002406,,inverted,,,,225.61133012201753,0.6036289103189649,225.62751266700798,226.24920457802364,226.2290969530004,,,,,,,,,,,,,229.24553614400793,1.286529719817465,229.2601328730234,230.56129955602228,230.54472003600677,225.09685712802457,225.11150593901402,225.62751266700798,225.61129930600873,,,,,,,,,,,,,,,,,,,,,,,,,,,,,,,,,,226.22915359400213,226.24920457802364,226.24920457802364,226.24920457802364,229.2601328730234,229.2601328730234,229.2601328730234,229.24480992101599,right,0,226.95383501600008,0.1029458070115652,,,,001,1,1,False,False,False,False,2025-01-21_10h30.07.108,inversion_effect,2024.1.0,None,2025-01-21 10h30.14.482682 -0800,
stimuli/inverted_faces/faces_stimuli_InvShort.csv,0,0.5,0.5,3,1,0.41,stimuli/inverted_faces/M121.png,stimuli/inverted_faces/M121.png,stimuli/inverted_faces/M121morph.png,1,faces,short,inverted,0,1,,,,,,,,,,,,,0,1,1,1,,,,,0,8,8,4,230.56129955602228,,,,,,,,,,,,230.54529351001838,230.56129955602228,230.56129955602228,230.5461109270109,,inverted,,,,231.04598356201313,0.517608214545098,231.06021547701675,231.58406731800642,231.56268345800345,,,,,,,,,,,,,234.58164526501787,1.1898453860197475,234.5947972810245,235.79620003700256,235.77877311600605,230.5461549940228,230.56129955602228,231.06021547701675,231.04594117801753,,,,,,,,,,,,,,,,,,,,,,,,,,,,,,,,,,231.56273918200168,231.58406731800642,231.58406731800642,231.58406731800642,234.5947972810245,234.5947972810245,234.5947972810245,234.580602394999,left,0,232.79681323000113,0.11448726602247916,,,,001,1,1,False,False,False,False,2025-01-21_10h30.07.108,inversion_effect,2024.1.0,None,2025-01-21 10h30.14.482682 -0800,
stimuli/inverted_faces/faces_stimuli_InvShort.csv,0,0.5,0.5,3,1,0.41,stimuli/inverted_faces/F21.png,stimuli/inverted_faces/F21.png,stimuli/inverted_faces/F21morph.png,1,faces,short,inverted,0,1,,,,,,,,,,,,,0,1,1,1,,,,,0,9,9,1,235.79620003700256,,,,,,,,,,,,235.77950032800436,235.79620003700256,235.79620003700256,235.78044361202046,,inverted,,,,236.29568549399846,0.6518717705483265,236.31124582400662,236.98438180002267,236.96343765902566,,,,,,,,,,,,,239.97925455099903,1.1759255615219828,239.99384052900132,241.17873606699868,241.16247207502602,235.78047518001404,235.79620003700256,236.31124582400662,236.29564533301163,,,,,,,,,,,,,,,,,,,,,,,,,,,,,,,,,,236.963493156014,236.98438180002267,236.98438180002267,236.98438180002267,239.99384052900132,239.99384052900132,239.99384052900132,239.97854200701113,left,0,237.5618701800122,0.13774133898550645,,,,001,1,1,False,False,False,False,2025-01-21_10h30.07.108,inversion_effect,2024.1.0,None,2025-01-21 10h30.14.482682 -0800,
stimuli/inverted_faces/faces_stimuli_InvShort.csv,0,0.5,0.5,3,1,0.41,stimuli/inverted_faces/F15.png,stimuli/inverted_faces/F15morph.png,stimuli/inverted_faces/F15.png,2,faces,short,inverted,0,1,,,,,,,,,,,,,0,1,1,1,,,,,0,10,10,17,241.17873606699868,,,,,,,,,,,,241.16332171999966,241.17873606699868,241.17873606699868,241.16443409901694,,inverted,,,,241.6777300980175,0.5754754732475397,241.69368504401064,242.2812188270036,242.26140116201714,,,,,,,,,,,,,245.27768685302,1.2313533990334782,245.29288719801116,246.52793278402532,246.51126654801192,241.1644685040228,241.17873606699868,241.69368504401064,241.67769029401825,,,,,,,,,,,,,,,,,,,,,,,,,,,,,,,,,,242.2614379459992,242.2812188270036,242.2812188270036,242.2812188270036,245.29288719801116,245.29288719801116,245.29288719801116,245.27734859701013,right,0,243.14078039402375,0.11232528599794023,,,,001,1,1,False,False,False,False,2025-01-21_10h30.07.108,inversion_effect,2024.1.0,None,2025-01-21 10h30.14.482682 -0800,
stimuli/inverted_faces/faces_stimuli_InvShort.csv,0,0.5,0.5,3,1,0.41,stimuli/inverted_faces/M21.png,stimuli/inverted_faces/M21morph.png,stimuli/inverted_faces/M21.png,2,faces,short,inverted,0,1,,,,,,,,,,,,,0,1,1,1,,,,,0,11,11,25,246.52793278402532,,,,,,,,,,,,246.51175727002556,246.52793278402532,246.52793278402532,246.51270147500327,,inverted,,,,247.01201895502163,0.5202776897000656,247.02702438802226,247.56153980302042,247.5438976919977,,,,,,,,,,,,,250.5459765670239,1.0648726588386876,250.55993610600126,251.62869569502072,251.6123024620174,246.5127305460046,246.52793278402532,247.02702438802226,247.0119782820111,,,,,,,,,,,,,,,,,,,,,,,,,,,,,,,,,,247.5439198850072,247.56153980302042,247.56153980302042,247.56153980302042,250.55993610600126,250.55993610600126,250.55993610600126,250.54527423300897,right,0,248.30683222800144,0.07192963501438498,,,,001,1,1,False,False,False,False,2025-01-21_10h30.07.108,inversion_effect,2024.1.0,None,2025-01-21 10h30.14.482682 -0800,
stimuli/inverted_faces/faces_stimuli_InvShort.csv,0,0.5,0.5,3,1,0.41,stimuli/inverted_faces/F18.png,stimuli/inverted_faces/F18morph.png,stimuli/inverted_faces/F18.png,2,faces,short,inverted,0,1,,,,,,,,,,,,,0,1,1,1,,,,,0,12,12,18,251.62869569502072,,,,,,,,,,,,251.6131436790165,251.62869569502072,251.62869569502072,251.61407981801312,,inverted,,,,252.1286371620081,0.5092428147426008,252.1441272070224,252.6653561060084,252.64516324701253,,,,,,,,,,,,,255.6632932560169,1.2450053889889108,255.6765357000113,256.929194337019,256.91141174102086,251.61411419100477,251.62869569502072,252.1441272070224,252.12860066900612,,,,,,,,,,,,,,,,,,,,,,,,,,,,,,,,,,252.6452025900071,252.6653561060084,252.6653561060084,252.6653561060084,255.6765357000113,255.6765357000113,255.6765357000113,255.6623243940121,left,0,253.64475502300775,0.13384550300543196,,,,001,1,1,False,False,False,False,2025-01-21_10h30.07.108,inversion_effect,2024.1.0,None,2025-01-21 10h30.14.482682 -0800,
stimuli/inverted_faces/faces_stimuli_InvShort.csv,0,0.5,0.5,3,1,0.41,stimuli/inverted_faces/M32.png,stimuli/inverted_faces/M32morph.png,stimuli/inverted_faces/M32.png,2,faces,short,inverted,0,1,,,,,,,,,,,,,0,1,1,1,,,,,0,13,13,27,256.929194337019,,,,,,,,,,,,256.91199013902224,256.929194337019,256.929194337019,256.9128562460246,,inverted,,,,257.42803250902216,0.622320125841286,257.4440182170074,258.07939604800777,258.06063025200274,,,,,,,,,,,,,261.07847738900455,1.1167917007131773,261.09345837301225,262.21007183301845,262.1940903979994,256.9128912150045,256.929194337019,257.4440182170074,257.42799505000585,,,,,,,,,,,,,,,,,,,,,,,,,,,,,,,,,,258.06065797200426,258.07939604800777,258.07939604800777,258.07939604800777,261.09345837301225,261.09345837301225,261.09345837301225,261.0778073920228,right,0,258.92561590499827,0.10144466502242722,,,,001,1,1,False,False,False,False,2025-01-21_10h30.07.108,inversion_effect,2024.1.0,None,2025-01-21 10h30.14.482682 -0800,
stimuli/inverted_faces/faces_stimuli_InvShort.csv,0,0.5,0.5,3,1,0.41,stimuli/inverted_faces/F7.png,stimuli/inverted_faces/F7morph.png,stimuli/inverted_faces/F7.png,2,faces,short,inverted,0,1,,,,,,,,,,,,,0,1,1,1,,,,,0,14,14,19,262.21007183301845,,,,,,,,,,,,262.19467725002323,262.21007183301845,262.21007183301845,262.1956157030072,,inverted,,,,262.70959606501856,0.5060714314246865,262.72564274800243,263.2484454290243,263.22801750001963,,,,,,,,,,,,,266.246723201999,1.0170960098077015,266.2604078760196,267.27918576000957,267.2630652610096,262.19565070501994,262.21007183301845,262.72564274800243,262.7095791870088,,,,,,,,,,,,,,,,,,,,,,,,,,,,,,,,,,263.22805564000737,263.2484454290243,263.2484454290243,263.2484454290243,266.2604078760196,266.2604078760196,266.2604078760196,266.24579729299876,right,0,264.1245200060075,0.08887306399992667,,,,001,1,1,False,False,False,False,2025-01-21_10h30.07.108,inversion_effect,2024.1.0,None,2025-01-21 10h30.14.482682 -0800,
stimuli/inverted_faces/faces_stimuli_InvShort.csv,0,0.5,0.5,3,1,0.41,stimuli/inverted_faces/M31.png,stimuli/inverted_faces/M31.png,stimuli/inverted_faces/M31morph.png,1,faces,short,inverted,0,1,,,,,,,,,,,,,0,1,1,1,,,,,0,15,15,11,267.27918576000957,,,,,,,,,,,,267.26377643601154,267.27918576000957,267.27918576000957,267.26480681000976,,inverted,,,,267.7796224220074,0.6110305749775362,267.7938484020124,268.4130444440234,268.3945592340024,,,,,,,,,,,,,271.4130099239992,1.2847472524056371,271.42784812502214,272.7293517110229,272.71322034401237,267.26484143800917,267.27918576000957,267.7938484020124,267.7795822790067,,,,,,,,,,,,,,,,,,,,,,,,,,,,,,,,,,268.39458438102156,268.4130444440234,268.4130444440234,268.4130444440234,271.42784812502214,271.42784812502214,271.42784812502214,271.41232094500447,left,0,269.46532658700016,0.10474190601962619,,,,001,1,1,False,False,False,False,2025-01-21_10h30.07.108,inversion_effect,2024.1.0,None,2025-01-21 10h30.14.482682 -0800,
stimuli/inverted_faces/faces_stimuli_InvShort.csv,0,0.5,0.5,3,1,0.41,stimuli/inverted_faces/F12.png,stimuli/inverted_faces/F12morph.png,stimuli/inverted_faces/F12.png,2,faces,short,inverted,0,1,,,,,,,,,,,,,0,1,1,1,,,,,0,16,16,15,272.7293517110229,,,,,,,,,,,,272.71402835001936,272.7293517110229,272.7293517110229,272.7150553149986,,inverted,,,,273.2291998320143,0.6440726921047201,273.2442549240077,273.8989542260242,273.8790202990058,,,,,,,,,,,,,276.8964038880076,1.2877180733806917,276.9096280320082,278.211613942025,278.19502076800563,272.71509009299916,272.7293517110229,273.2442549240077,273.22915979500976,,,,,,,,,,,,,,,,,,,,,,,,,,,,,,,,,,273.8790570840065,273.8989542260242,273.8989542260242,273.8989542260242,276.9096280320082,276.9096280320082,276.9096280320082,276.8956245680165,right,0,274.6592004880076,0.09779821001575328,,,,001,1,1,False,False,False,False,2025-01-21_10h30.07.108,inversion_effect,2024.1.0,None,2025-01-21 10h30.14.482682 -0800,
stimuli/inverted_faces/faces_stimuli_InvShort.csv,0,0.5,0.5,3,1,0.41,stimuli/inverted_faces/M130.png,stimuli/inverted_faces/M130morph.png,stimuli/inverted_faces/M130.png,2,faces,short,inverted,0,1,,,,,,,,,,,,,0,1,1,1,,,,,0,17,17,24,278.211613942025,,,,,,,,,,,,278.1958666270075,278.211613942025,278.211613942025,278.1971044150123,,inverted,,,,278.71122649501194,0.6341460749438386,278.72674023901345,279.3644188280159,279.34474599402165,,,,,,,,,,,,,282.3625160040101,1.039956065299089,282.37725530200987,283.42919532500673,283.4114134570118,278.19713974100887,278.211613942025,278.72674023901345,278.7111869320215,,,,,,,,,,,,,,,,,,,,,,,,,,,,,,,,,,279.3447859350126,279.3644188280159,279.3644188280159,279.3644188280159,282.37725530200987,282.37725530200987,282.37725530200987,282.36182656302117,right,0,280.1741168280132,0.08342853299109265,,,,001,1,1,False,False,False,False,2025-01-21_10h30.07.108,inversion_effect,2024.1.0,None,2025-01-21 10h30.14.482682 -0800,
stimuli/inverted_faces/faces_stimuli_InvShort.csv,0,0.5,0.5,3,1,0.41,stimuli/inverted_faces/F11.png,stimuli/inverted_faces/F11morph.png,stimuli/inverted_faces/F11.png,2,faces,short,inverted,0,1,,,,,,,,,,,,,0,1,1,1,,,,,0,18,18,14,283.42919532500673,,,,,,,,,,,,283.41226996001205,283.42919532500673,283.42919532500673,283.41323617400485,,inverted,,,,283.92746204300784,0.5973370361734442,283.9438210330263,284.54822876202525,284.52802640901064,,,,,,,,,,,,,287.54521835700143,1.1755594603436954,287.5598665570142,288.74448874400696,288.72699316299986,283.4132697460009,283.42919532500673,283.9438210330263,283.9274232610187,,,,,,,,,,,,,,,,,,,,,,,,,,,,,,,,,,284.5280661279976,284.54822876202525,284.54822876202525,284.54822876202525,287.5598665570142,287.5598665570142,287.5598665570142,287.54453747702064,right,0,285.3568794540188,0.06629886900191195,,,,001,1,1,False,False,False,False,2025-01-21_10h30.07.108,inversion_effect,2024.1.0,None,2025-01-21 10h30.14.482682 -0800,
stimuli/inverted_faces/faces_stimuli_InvShort.csv,0,0.5,0.5,3,1,0.41,stimuli/inverted_faces/M126.png,stimuli/inverted_faces/M126morph.png,stimuli/inverted_faces/M126.png,2,faces,short,inverted,0,1,,,,,,,,,,,,,0,1,1,1,,,,,0,19,19,22,288.74448874400696,,,,,,,,,,,,288.7275594130042,288.74448874400696,288.74448874400696,288.7286626250134,,inverted,,,,289.22865800501313,0.5808890974131086,289.24328009900637,289.83153882602346,289.8113211270247,,,,,,,,,,,,,292.82955264500924,1.0260347973675104,292.8435150430014,293.8752031530021,293.8595056760241,288.72869308502413,288.74448874400696,289.24328009900637,289.2286005260248,,,,,,,,,,,,,,,,,,,,,,,,,,,,,,,,,,289.8113595430041,289.83153882602346,289.83153882602346,289.83153882602346,292.8435150430014,292.8435150430014,292.8435150430014,292.8286140670243,right,0,290.74656134902034,0.05460298599791713,,,,001,1,1,False,False,False,False,2025-01-21_10h30.07.108,inversion_effect,2024.1.0,None,2025-01-21 10h30.14.482682 -0800,
stimuli/inverted_faces/faces_stimuli_InvShort.csv,0,0.5,0.5,3,1,0.41,stimuli/inverted_faces/M25.png,stimuli/inverted_faces/M25.png,stimuli/inverted_faces/M25morph.png,1,faces,short,inverted,0,1,,,,,,,,,,,,,0,1,1,1,,,,,0,20,20,10,293.8752031530021,,,,,,,,,,,,293.8597510300169,293.8752031530021,293.8752031530021,293.86014796301606,,inverted,,,,294.36135674701654,0.5645378974075809,294.3761914909992,294.9481750760169,294.9280203290109,,,,,,,,,,,,,297.9458494770224,1.2350096784238564,297.9592591160035,299.2122479570098,299.1942882320145,293.860157343006,293.8752031530021,294.3761914909992,294.3613176960207,,,,,,,,,,,,,,,,,,,,,,,,,,,,,,,,,,294.9280583910004,294.9481750760169,294.9481750760169,294.9481750760169,297.9592591160035,297.9592591160035,297.9592591160035,297.9447654800024,right,0,295.89484555102536,0.07918481499655172,,,,001,1,1,False,False,False,False,2025-01-21_10h30.07.108,inversion_effect,2024.1.0,None,2025-01-21 10h30.14.482682 -0800,
stimuli/inverted_faces/faces_stimuli_InvShort.csv,0,0.5,0.5,3,1,0.41,stimuli/inverted_faces/M28.png,stimuli/inverted_faces/M28morph.png,stimuli/inverted_faces/M28.png,2,faces,short,inverted,0,1,,,,,,,,,,,,,0,1,1,1,,,,,0,21,21,26,299.2122479570098,,,,,,,,,,,,299.1951644310029,299.2122479570098,299.2122479570098,299.19655928900465,,inverted,,,,299.7107280600176,0.6631642198373449,299.72587443701923,300.3957771520072,300.37714317801874,,,,,,,,,,,,,303.3957185340114,1.157399136120029,303.4107570089982,304.57758113602176,304.56152373101213,299.19661204202566,299.2122479570098,299.72587443701923,299.7106899190112,,,,,,,,,,,,,,,,,,,,,,,,,,,,,,,,,,300.3771819510148,300.3957771520072,300.3957771520072,300.3957771520072,303.4107570089982,303.4107570089982,303.4107570089982,303.39500710900757,right,0,301.2052669340046,0.08245199400698766,,,,001,1,1,False,False,False,False,2025-01-21_10h30.07.108,inversion_effect,2024.1.0,None,2025-01-21 10h30.14.482682 -0800,
stimuli/inverted_faces/faces_stimuli_InvShort.csv,0,0.5,0.5,3,1,0.41,stimuli/inverted_faces/M129.png,stimuli/inverted_faces/M129.png,stimuli/inverted_faces/M129morph.png,1,faces,short,inverted,0,1,,,,,,,,,,,,,0,1,1,1,,,,,0,22,22,7,304.57758113602176,,,,,,,,,,,,304.56210957700387,304.57758113602176,304.57758113602176,304.56297049301793,,inverted,,,,305.07875875601894,0.5204849658715867,305.0933720350149,305.6327567890112,305.6122286180034,,,,,,,,,,,,,308.6293830939976,1.1575109014715754,308.6430498670088,309.80989758402575,309.79375600701314,304.56300442200154,304.57758113602176,305.0933720350149,305.07870143299806,,,,,,,,,,,,,,,,,,,,,,,,,,,,,,,,,,305.61228516700794,305.6327567890112,305.6327567890112,305.6327567890112,308.6430498670088,308.6430498670088,308.6430498670088,308.6286970509973,right,0,306.4993553540262,0.0757398429850582,,,,001,1,1,False,False,False,False,2025-01-21_10h30.07.108,inversion_effect,2024.1.0,None,2025-01-21 10h30.14.482682 -0800,
stimuli/inverted_faces/faces_stimuli_InvShort.csv,0,0.5,0.5,3,1,0.41,stimuli/inverted_faces/M35.png,stimuli/inverted_faces/M35.png,stimuli/inverted_faces/M35morph.png,1,faces,short,inverted,0,1,,,,,,,,,,,,,0,1,1,1,,,,,0,23,23,12,309.80989758402575,,,,,,,,,,,,309.79435222400934,309.80989758402575,309.80989758402575,309.7951314430102,,inverted,,,,310.2943679570162,0.6330412788714914,310.30946807700093,310.94757559802383,310.927726695023,,,,,,,,,,,,,313.94453013900784,1.293275326954638,313.95981174800545,315.26080286400975,315.2445948480163,309.79516085301293,309.80989758402575,310.30946807700093,310.2943099120166,,,,,,,,,,,,,,,,,,,,,,,,,,,,,,,,,,310.92776397202397,310.94757559802383,310.94757559802383,310.94757559802383,313.95981174800545,313.95981174800545,313.95981174800545,313.94385287101613,left,0,311.94953374701436,0.11402367800474167,,,,001,1,1,False,False,False,False,2025-01-21_10h30.07.108,inversion_effect,2024.1.0,None,2025-01-21 10h30.14.482682 -0800,
stimuli/inverted_faces/faces_stimuli_InvShort.csv,0,0.5,0.5,3,1,0.41,stimuli/inverted_faces/F9.png,stimuli/inverted_faces/F9.png,stimuli/inverted_faces/F9morph.png,1,faces,short,inverted,0,1,,,,,,,,,,,,,0,1,1,1,,,,,0,24,24,2,315.26080286400975,,,,,,,,,,,,315.2451727980224,315.26080286400975,315.26080286400975,315.245996260026,,inverted,,,,315.74529208699823,0.671066348290158,315.7590830310073,316.44819043701864,316.42761185302516,,,,,,,,,,,,,319.4460906200111,1.1062975725621391,319.4597031120211,320.5774177230196,320.56045702201664,315.2460306750145,315.26080286400975,315.7590830310073,315.7452323700127,,,,,,,,,,,,,,,,,,,,,,,,,,,,,,,,,,316.4276502300054,316.44819043701864,316.44819043701864,316.44819043701864,319.4597031120211,319.4597031120211,319.4597031120211,319.4453030200093,left,0,317.2526312429982,0.09324934700271115,,,,001,1,1,False,False,False,False,2025-01-21_10h30.07.108,inversion_effect,2024.1.0,None,2025-01-21 10h30.14.482682 -0800,
stimuli/inverted_faces/faces_stimuli_InvShort.csv,0,0.5,0.5,3,1,0.41,stimuli/inverted_faces/M122.png,stimuli/inverted_faces/M122morph.png,stimuli/inverted_faces/M122.png,2,faces,short,inverted,0,1,,,,,,,,,,,,,0,1,1,1,,,,,0,25,25,20,320.5774177230196,,,,,,,,,,,,320.5610747220053,320.5774177230196,320.5774177230196,320.5619723810232,,inverted,,,,321.0769374920055,0.5509662667735107,321.0923573660257,321.6480355219974,321.62789409799734,,,,,,,,,,,,,324.6453167280124,1.099897445484721,324.6595236400026,325.76157131200307,325.74419745101477,320.5620049650024,320.5774177230196,321.0923573660257,321.0769015100086,,,,,,,,,,,,,,,,,,,,,,,,,,,,,,,,,,321.62793485901784,321.6480355219974,321.6480355219974,321.6480355219974,324.6595236400026,324.6595236400026,324.6595236400026,324.644624706998,right,0,322.3644934010226,0.09480409597745165,,,,001,1,1,False,False,False,False,2025-01-21_10h30.07.108,inversion_effect,2024.1.0,None,2025-01-21 10h30.14.482682 -0800,
stimuli/inverted_faces/faces_stimuli_InvShort.csv,0,0.5,0.5,3,1,0.41,stimuli/inverted_faces/F16.png,stimuli/inverted_faces/F16.png,stimuli/inverted_faces/F16morph.png,1,faces,short,inverted,0,1,,,,,,,,,,,,,0,1,1,1,,,,,0,26,26,0,325.76157131200307,,,,,,,,,,,,325.74476562201744,325.76157131200307,325.76157131200307,325.7457738200028,,inverted,,,,326.2614290790225,0.57067307782693,326.2761536030157,326.86594997299835,326.84471718102577,,,,,,,,,,,,,329.8620622140006,1.0071461822041194,329.8755816500052,330.8948563830054,330.8776481730165,325.7458078850177,325.76157131200307,326.2761536030157,326.2613699250214,,,,,,,,,,,,,,,,,,,,,,,,,,,,,,,,,,326.8447895570134,326.86594997299835,326.86594997299835,326.86594997299835,329.8755816500052,329.8755816500052,329.8755816500052,329.86123027899885,right,0,327.74352155902307,0.08928311199997552,,,,001,1,1,False,False,False,False,2025-01-21_10h30.07.108,inversion_effect,2024.1.0,None,2025-01-21 10h30.14.482682 -0800,
stimuli/inverted_faces/faces_stimuli_InvShort.csv,0,0.5,0.5,3,1,0.41,stimuli/inverted_faces/M128.png,stimuli/inverted_faces/M128.png,stimuli/inverted_faces/M128morph.png,1,faces,short,inverted,0,1,,,,,,,,,,,,,0,1,1,1,,,,,0,27,27,6,330.8948563830054,,,,,,,,,,,,330.8782312020194,330.8948563830054,330.8948563830054,330.879276917025,,inverted,,,,331.39360150601715,0.684918436873412,331.4097638630192,332.1119710680214,332.0941298149992,,,,,,,,,,,,,335.1106380110141,1.2825933963104643,335.1259263510001,336.47443669702625,336.3945500230184,330.8793059489981,330.8948563830054,331.4097638630192,331.39356117200805,,,,,,,,,,,,,,,,,,,,,,,,,,,,,,,,,,332.0941608180001,332.1119710680214,332.1119710680214,332.1119710680214,335.1259263510001,335.1259263510001,335.1259263510001,335.10993901401525,right,0,333.0725068360043,0.08562390401493758,,,,001,1,1,False,False,False,False,2025-01-21_10h30.07.108,inversion_effect,2024.1.0,None,2025-01-21 10h30.14.482682 -0800,
stimuli/inverted_faces/faces_stimuli_UpLong.csv,0,5.0,0.5,3,1,0.41,stimuli/inverted_faces/F13.png,stimuli/inverted_faces/F13.png,stimuli/inverted_faces/F13morph.png,1,faces,long,upright,1,0,,,,,,,,,,,,,0,2,2,2,0,0,0,3,,,,,338.43788416701136,,,,,,,,,,,,338.425363716,338.43788416701136,338.43788416701136,338.42605534000904,338.42607933899853,upright,338.43788416701136,343.4427455710247,343.42792321700836,343.42796171002556,0.5931781365356419,343.4427455710247,344.04778439801885,344.0278950300126,,,,,,,,,,,,,347.0446906069992,1.1940266083238695,347.0589149080042,348.2613625600061,348.244149390026,,,,,,,,,,,,,,,,,,,,,,,344.02793245602516,344.04778439801885,344.04778439801885,344.04778439801885,347.0589149080042,347.0589149080042,347.0589149080042,347.0436138070072,left,0,344.863430864003,0.0651622099976521,336.4680897530052,336.47443669702625,338.41005513901473,,,,,,,,,,,,,,,,001,1,1,False,False,False,False,2025-01-21_10h30.07.108,inversion_effect,2024.1.0,None,2025-01-21 10h30.14.482682 -0800,
stimuli/inverted_faces/faces_stimuli_UpLong.csv,0,5.0,0.5,3,1,0.41,stimuli/inverted_faces/M25.png,stimuli/inverted_faces/M25morph.png,stimuli/inverted_faces/M25.png,2,faces,long,upright,1,0,,,,,,,,,,,,,0,2,2,2,0,1,1,25,,,,,348.2613625600061,,,,,,,,,,,,348.2447379009973,348.2613625600061,348.2613625600061,348.2455193850037,348.24554887300474,upright,348.2613625600061,353.2755138030043,353.26028214700636,353.2603176240227,0.5117420543905244,353.2755138030043,353.7971139400033,353.77726377602085,,,,,,,,,,,,,356.79494613801944,1.1829129921349084,356.80929037200985,357.9942386519979,357.97731227902113,,,,,,,,,,,,,,,,,,,,,,,353.77730384701863,353.7971139400033,353.7971139400033,353.7971139400033,356.80929037200985,356.80929037200985,356.80929037200985,356.79420695101726,right,0,354.42197082500206,0.0766322560084518,,,,,,,,,,,,,,,,,,,001,1,1,False,False,False,False,2025-01-21_10h30.07.108,inversion_effect,2024.1.0,None,2025-01-21 10h30.14.482682 -0800,
stimuli/inverted_faces/faces_stimuli_UpLong.csv,0,5.0,0.5,3,1,0.41,stimuli/inverted_faces/F15.png,stimuli/inverted_faces/F15.png,stimuli/inverted_faces/F15morph.png,1,faces,long,upright,1,0,,,,,,,,,,,,,0,2,2,2,0,2,2,4,,,,,357.9942386519979,,,,,,,,,,,,357.9779362400004,357.9942386519979,357.9942386519979,357.97879334300524,357.9788271430007,upright,357.9942386519979,363.00933706300566,362.9939202860114,362.9939589170099,0.6764604757391119,363.00933706300566,363.6934070130228,363.6757963170239,,,,,,,,,,,,,366.6940594440093,1.256904148558096,366.70803096101736,367.9775262380135,367.959655699,,,,,,,,,,,,,,,,,,,,,,,363.67582403702545,363.6934070130228,363.6934070130228,363.6934070130228,366.70803096101736,366.70803096101736,366.70803096101736,366.6933731910249,left,0,364.43308966900804,0.08281690301373601,,,,,,,,,,,,,,,,,,,001,1,1,False,False,False,False,2025-01-21_10h30.07.108,inversion_effect,2024.1.0,None,2025-01-21 10h30.14.482682 -0800,
stimuli/inverted_faces/faces_stimuli_UpLong.csv,0,5.0,0.5,3,1,0.41,stimuli/inverted_faces/F11.png,stimuli/inverted_faces/F11.png,stimuli/inverted_faces/F11morph.png,1,faces,long,upright,1,0,,,,,,,,,,,,,0,2,2,2,0,3,3,1,,,,,367.9775262380135,,,,,,,,,,,,367.9602293909993,367.9775262380135,367.9775262380135,367.9612101210223,367.9612446180254,upright,367.9775262380135,372.99326242500683,372.9778941060067,372.9779693960154,0.5118500225887717,372.99326242500683,373.5135779910197,373.4942490340036,,,,,,,,,,,,,376.51089274301194,1.2353195116181908,376.5256409770227,377.776354533009,377.76054744402063,,,,,,,,,,,,,,,,,,,,,,,373.4942878880247,373.5135779910197,373.5135779910197,373.5135779910197,376.5256409770227,376.5256409770227,376.5256409770227,376.51016882501426,left,0,374.3568380540237,0.06878690799931064,,,,,,,,,,,,,,,,,,,001,1,1,False,False,False,False,2025-01-21_10h30.07.108,inversion_effect,2024.1.0,None,2025-01-21 10h30.14.482682 -0800,
stimuli/inverted_faces/faces_stimuli_UpLong.csv,0,5.0,0.5,3,1,0.41,stimuli/inverted_faces/F21.png,stimuli/inverted_faces/F21morph.png,stimuli/inverted_faces/F21.png,2,faces,long,upright,1,0,,,,,,,,,,,,,0,2,2,2,0,4,4,15,,,,,377.776354533009,,,,,,,,,,,,377.7612145000021,377.776354533009,377.776354533009,377.7620799370052,377.7621141800191,upright,377.776354533009,382.7923516780138,382.7767470640247,382.77679177201935,0.5348945289197836,382.7923516780138,383.3452373590262,383.32619415799854,,,,,,,,,,,,,386.34431391902035,1.2843337433168784,386.3584843290155,387.6423883160169,387.6266528010019,,,,,,,,,,,,,,,,,,,,,,,383.3262143570173,383.3452373590262,383.3452373590262,383.3452373590262,386.3584843290155,386.3584843290155,386.3584843290155,386.34360606601695,right,0,384.09741582200513,0.11815125800785609,,,,,,,,,,,,,,,,,,,001,1,1,False,False,False,False,2025-01-21_10h30.07.108,inversion_effect,2024.1.0,None,2025-01-21 10h30.14.482682 -0800,
stimuli/inverted_faces/faces_stimuli_UpLong.csv,0,5.0,0.5,3,1,0.41,stimuli/inverted_faces/M32.png,stimuli/inverted_faces/M32.png,stimuli/inverted_faces/M32morph.png,1,faces,long,upright,1,0,,,,,,,,,,,,,0,2,2,2,0,5,5,12,,,,,387.6423883160169,,,,,,,,,,,,387.62724764700397,387.6423883160169,387.6423883160169,387.6280399210227,387.62806898300187,upright,387.6423883160169,392.64239522401476,392.6267219230067,392.6267592140066,0.5235611340719702,392.64239522401476,393.1807504140015,393.1601543080178,,,,,,,,,,,,,396.17768008902203,1.2238806085635383,396.19155484900693,397.42975994502194,397.40973383400706,,,,,,,,,,,,,,,,,,,,,,,393.1602099640004,393.1807504140015,393.1807504140015,393.1807504140015,396.19155484900693,396.19155484900693,396.19155484900693,396.1769714480033,left,0,393.8999167350121,0.1418991590035148,,,,,,,,,,,,,,,,,,,001,1,1,False,False,False,False,2025-01-21_10h30.07.108,inversion_effect,2024.1.0,None,2025-01-21 10h30.14.482682 -0800,
stimuli/inverted_faces/faces_stimuli_UpLong.csv,0,5.0,0.5,3,1,0.41,stimuli/inverted_faces/M129.png,stimuli/inverted_faces/M129.png,stimuli/inverted_faces/M129morph.png,1,faces,long,upright,1,0,,,,,,,,,,,,,0,2,2,2,0,6,6,10,,,,,397.42975994502194,,,,,,,,,,,,397.41034223901806,397.42975994502194,397.42975994502194,397.41132069801097,397.4113565830048,upright,397.42975994502194,402.44137619802495,402.42679753599805,402.42685283502215,0.5924876686397542,402.44137619802495,403.04387929302175,403.0251408930053,,,,,,,,,,,,,406.04458433701075,1.117311053260484,406.058037180017,407.1768805780157,407.15915598301217,,,,,,,,,,,,,,,,,,,,,,,403.02516626301804,403.04387929302175,403.04387929302175,403.04387929302175,406.058037180017,406.058037180017,406.058037180017,406.0435904600017,left,0,403.9110165530001,0.08427583301090635,,,,,,,,,,,,,,,,,,,001,1,1,False,False,False,False,2025-01-21_10h30.07.108,inversion_effect,2024.1.0,None,2025-01-21 10h30.14.482682 -0800,
stimuli/inverted_faces/faces_stimuli_UpLong.csv,0,5.0,0.5,3,1,0.41,stimuli/inverted_faces/F9.png,stimuli/inverted_faces/F9morph.png,stimuli/inverted_faces/F9.png,2,faces,long,upright,1,0,,,,,,,,,,,,,0,2,2,2,0,7,7,16,,,,,407.1768805780157,,,,,,,,,,,,407.1597404880158,407.1768805780157,407.1768805780157,407.16055679001147,407.1605907800258,upright,407.1768805780157,412.19161047801026,412.1775210320193,412.1775764110207,0.6846576729962985,412.19161047801026,412.88170227000955,412.86024598401855,,,,,,,,,,,,,415.87898823199794,1.2707171239812913,415.89116725101485,417.1768856400158,417.1594129500154,,,,,,,,,,,,,,,,,,,,,,,412.8602822860121,412.88170227000955,412.88170227000955,412.88170227000955,415.89116725101485,415.89116725101485,415.89116725101485,415.87793850601884,right,0,413.55147550301626,0.11256175700691529,,,,,,,,,,,,,,,,,,,001,1,1,False,False,False,False,2025-01-21_10h30.07.108,inversion_effect,2024.1.0,None,2025-01-21 10h30.14.482682 -0800,
stimuli/inverted_faces/faces_stimuli_UpLong.csv,0,5.0,0.5,3,1,0.41,stimuli/inverted_faces/F18.png,stimuli/inverted_faces/F18.png,stimuli/inverted_faces/F18morph.png,1,faces,long,upright,1,0,,,,,,,,,,,,,0,2,2,2,0,8,8,5,,,,,417.1768856400158,,,,,,,,,,,,417.15998752301675,417.1768856400158,417.1768856400158,417.16090298601193,417.16093603600166,upright,417.1768856400158,422.1911592860124,422.17688752600225,422.17692534800153,0.6243349165465455,422.1911592860124,422.8294063670037,422.8096985150187,,,,,,,,,,,,,425.8275430770009,1.200789248771671,425.8417883400107,427.0437525700254,427.02674697199836,,,,,,,,,,,,,,,,,,,,,,,422.8097375250072,422.8294063670037,422.8294063670037,422.8294063670037,425.8417883400107,425.8417883400107,425.8417883400107,425.8268368660065,left,0,423.59422421100317,0.11016165200271644,,,,,,,,,,,,,,,,,,,001,1,1,False,False,False,False,2025-01-21_10h30.07.108,inversion_effect,2024.1.0,None,2025-01-21 10h30.14.482682 -0800,
stimuli/inverted_faces/faces_stimuli_UpLong.csv,0,5.0,0.5,3,1,0.41,stimuli/inverted_faces/M125.png,stimuli/inverted_faces/M125morph.png,stimuli/inverted_faces/M125.png,2,faces,long,upright,1,0,,,,,,,,,,,,,0,2,2,2,0,9,9,19,,,,,427.0437525700254,,,,,,,,,,,,427.0273414730036,427.0437525700254,427.0437525700254,427.02834189200075,427.02837763901334,upright,427.0437525700254,432.05790249601705,432.0427273240057,432.04278297600104,0.5179001560626402,432.05790249601705,432.5800671710167,432.5599969770119,,,,,,,,,,,,,435.57624490902526,1.105691819458999,435.59100641301484,436.70809545501834,436.6920275290031,,,,,,,,,,,,,,,,,,,,,,,432.5600319520163,432.5800671710167,432.5800671710167,432.5800671710167,435.59100641301484,435.59100641301484,435.59100641301484,435.57564577501034,right,0,432.9721498560102,0.10945210998761468,,,,,,,,,,,,,,,,,,,001,1,1,False,False,False,False,2025-01-21_10h30.07.108,inversion_effect,2024.1.0,None,2025-01-21 10h30.14.482682 -0800,
stimuli/inverted_faces/faces_stimuli_UpLong.csv,0,5.0,0.5,3,1,0.41,stimuli/inverted_faces/M128.png,stimuli/inverted_faces/M128morph.png,stimuli/inverted_faces/M128.png,2,faces,long,upright,1,0,,,,,,,,,,,,,0,2,2,2,0,10,10,21,,,,,436.70809545501834,,,,,,,,,,,,436.69259594901814,436.70809545501834,436.70809545501834,436.69335904502077,436.6933864870225,upright,436.70809545501834,441.7072830690013,441.69281125301495,441.6928887280228,0.531201839037141,441.7072830690013,442.245700503001,442.2258314920182,,,,,,,,,,,,,445.24350540401065,1.0563528692325528,445.25899641102296,446.3229827720206,446.3069563290046,,,,,,,,,,,,,,,,,,,,,,,442.2258689709997,442.245700503001,442.245700503001,442.245700503001,445.25899641102296,445.25899641102296,445.25899641102296,445.2429159349995,left,0,443.5390197590168,0.12608911498682573,,,,,,,,,,,,,,,,,,,001,1,1,False,False,False,False,2025-01-21_10h30.07.108,inversion_effect,2024.1.0,None,2025-01-21 10h30.14.482682 -0800,
stimuli/inverted_faces/faces_stimuli_UpLong.csv,0,5.0,0.5,3,1,0.41,stimuli/inverted_faces/M130.png,stimuli/inverted_faces/M130morph.png,stimuli/inverted_faces/M130.png,2,faces,long,upright,1,0,,,,,,,,,,,,,0,2,2,2,0,11,11,22,,,,,446.3229827720206,,,,,,,,,,,,446.3072193679982,446.3229827720206,446.3229827720206,446.3076042449975,446.30761476501357,upright,446.3229827720206,451.32414117400185,451.31055905102403,451.31059715899755,0.6109887770483399,451.32414117400185,451.9486786320049,451.92726650700206,,,,,,,,,,,,,454.9433176490129,1.112003489030216,454.957001665025,456.07359639101196,456.0577280270227,,,,,,,,,,,,,,,,,,,,,,,451.92732335600886,451.9486786320049,451.9486786320049,451.9486786320049,454.957001665025,454.957001665025,454.957001665025,454.9426133460074,left,0,454.08032574501703,0.09460347599815577,,,,,,,,,,,,,,,,,,,001,1,1,False,False,False,False,2025-01-21_10h30.07.108,inversion_effect,2024.1.0,None,2025-01-21 10h30.14.482682 -0800,
stimuli/inverted_faces/faces_stimuli_UpLong.csv,0,5.0,0.5,3,1,0.41,stimuli/inverted_faces/F16.png,stimuli/inverted_faces/F16morph.png,stimuli/inverted_faces/F16.png,2,faces,long,upright,1,0,,,,,,,,,,,,,0,2,2,2,0,12,12,14,,,,,456.07359639101196,,,,,,,,,,,,456.05809983302606,456.07359639101196,456.07359639101196,456.05864667502465,456.058663030999,upright,456.07359639101196,461.0743237810093,461.0596280110185,461.0596668670187,0.5043383479722422,461.0743237810093,461.59655827400275,461.5760442239989,,,,,,,,,,,,,464.5935322630103,1.0737735530002217,464.6078589320241,465.6931833870185,465.67597997700796,,,,,,,,,,,,,,,,,,,,,,,461.57608312999946,461.59655827400275,461.59655827400275,461.59655827400275,464.6078589320241,464.6078589320241,464.6078589320241,464.5928436469985,right,0,461.9545499510132,0.15196717300568707,,,,,,,,,,,,,,,,,,,001,1,1,False,False,False,False,2025-01-21_10h30.07.108,inversion_effect,2024.1.0,None,2025-01-21 10h30.14.482682 -0800,
stimuli/inverted_faces/faces_stimuli_UpLong.csv,0,5.0,0.5,3,1,0.41,stimuli/inverted_faces/M21.png,stimuli/inverted_faces/M21.png,stimuli/inverted_faces/M21morph.png,1,faces,long,upright,1,0,,,,,,,,,,,,,0,2,2,2,0,13,13,11,,,,,465.6931833870185,,,,,,,,,,,,465.67655456002103,465.6931833870185,465.6931833870185,465.6776493980142,465.6776790750155,upright,465.6931833870185,470.70698176600854,470.6907754270069,470.69080527100596,0.5907645054476516,470.70698176600854,471.3131138770259,471.2924651010253,,,,,,,,,,,,,474.3096588400076,1.2360231819693313,474.3236325060134,475.57422236399725,475.55811948000337,,,,,,,,,,,,,,,,,,,,,,,471.2925021490082,471.3131138770259,471.3131138770259,471.3131138770259,474.3236325060134,474.3236325060134,474.3236325060134,474.3087334110169,left,0,471.4725158600195,0.13464894698699936,,,,,,,,,,,,,,,,,,,001,1,1,False,False,False,False,2025-01-21_10h30.07.108,inversion_effect,2024.1.0,None,2025-01-21 10h30.14.482682 -0800,
stimuli/inverted_faces/faces_stimuli_UpLong.csv,0,5.0,0.5,3,1,0.41,stimuli/inverted_faces/M122.png,stimuli/inverted_faces/M122.png,stimuli/inverted_faces/M122morph.png,1,faces,long,upright,1,0,,,,,,,,,,,,,0,2,2,2,0,14,14,8,,,,,475.57422236399725,,,,,,,,,,,,475.5586973550089,475.57422236399725,475.57422236399725,475.55978257002425,475.55981715701637,upright,475.57422236399725,480.5743363290094,480.5596977160021,480.55976190802176,0.5573086505856738,480.5743363290094,481.1452696880151,481.12520990302437,,,,,,,,,,,,,484.1438169640023,1.039019986133206,484.15797063702485,485.20967053002096,485.19335088902153,,,,,,,,,,,,,,,,,,,,,,,481.1252484540164,481.1452696880151,481.1452696880151,481.1452696880151,484.15797063702485,484.15797063702485,484.15797063702485,484.14310247602407,left,0,482.0203351160162,0.13696854098816402,,,,,,,,,,,,,,,,,,,001,1,1,False,False,False,False,2025-01-21_10h30.07.108,inversion_effect,2024.1.0,None,2025-01-21 10h30.14.482682 -0800,
stimuli/inverted_faces/faces_stimuli_UpLong.csv,0,5.0,0.5,3,1,0.41,stimuli/inverted_faces/M131.png,stimuli/inverted_faces/M131morph.png,stimuli/inverted_faces/M131.png,2,faces,long,upright,1,0,,,,,,,,,,,,,0,2,2,2,0,15,15,23,,,,,485.20967053002096,,,,,,,,,,,,485.19397824801854,485.20967053002096,485.20967053002096,485.1948649910046,485.1948994320119,upright,485.20967053002096,490.2239582550246,490.20857468701433,490.2086122620094,0.698294513723753,490.2239582550246,490.9274475580023,490.9084473750263,,,,,,,,,,,,,493.92598794802325,1.0923438455327927,493.94061893899925,495.04181243502535,495.02561870301724,,,,,,,,,,,,,,,,,,,,,,,490.90848363400437,490.9274475580023,490.9274475580023,490.9274475580023,493.94061893899925,493.94061893899925,493.94061893899925,493.92529703999753,right,0,491.65391573801753,0.13881871098419651,,,,,,,,,,,,,,,,,,,001,1,1,False,False,False,False,2025-01-21_10h30.07.108,inversion_effect,2024.1.0,None,2025-01-21 10h30.14.482682 -0800,
stimuli/inverted_faces/faces_stimuli_UpLong.csv,0,5.0,0.5,3,1,0.41,stimuli/inverted_faces/M28.png,stimuli/inverted_faces/M28morph.png,stimuli/inverted_faces/M28.png,2,faces,long,upright,1,0,,,,,,,,,,,,,0,2,2,2,0,16,16,26,,,,,495.04181243502535,,,,,,,,,,,,495.02644208300626,495.04181243502535,495.04181243502535,495.0275763219979,495.0276058720192,upright,495.04181243502535,500.0405150029983,500.02578093099874,500.02581933300826,0.6768437119167661,500.0405150029983,500.72781931899954,500.7082671399985,,,,,,,,,,,,,503.7267112910049,1.0620612906222,503.74033498801873,504.80945861001965,504.79123492600047,,,,,,,,,,,,,,,,,,,,,,,500.70830419901176,500.72781931899954,500.72781931899954,500.72781931899954,503.74033498801873,503.74033498801873,503.74033498801873,503.72565552502056,left,0,501.3266728100134,0.12703361301100813,,,,,,,,,,,,,,,,,,,001,1,1,False,False,False,False,2025-01-21_10h30.07.108,inversion_effect,2024.1.0,None,2025-01-21 10h30.14.482682 -0800,
stimuli/inverted_faces/faces_stimuli_UpLong.csv,0,5.0,0.5,3,1,0.41,stimuli/inverted_faces/M22.png,stimuli/inverted_faces/M22morph.png,stimuli/inverted_faces/M22.png,2,faces,long,upright,1,0,,,,,,,,,,,,,0,2,2,2,0,17,17,24,,,,,504.80945861001965,,,,,,,,,,,,504.7920453850238,504.80945861001965,504.80945861001965,504.7930589640164,504.7930868740077,upright,504.80945861001965,509.8238976180146,509.8080162400147,509.80805395101197,0.54281528169205,509.8238976180146,510.37814092999906,510.3581361910037,,,,,,,,,,,,,513.3749290210253,1.1573246246717053,513.3898377620208,514.5584801950026,514.5426153739973,,,,,,,,,,,,,,,,,,,,,,,510.3581755250052,510.37814092999906,510.37814092999906,510.37814092999906,513.3898377620208,513.3898377620208,513.3898377620208,513.374227051012,left,0,511.32292058801977,0.089504206989659,,,,,,,,,,,,,,,,,,,001,1,1,False,False,False,False,2025-01-21_10h30.07.108,inversion_effect,2024.1.0,None,2025-01-21 10h30.14.482682 -0800,
stimuli/inverted_faces/faces_stimuli_UpLong.csv,0,5.0,0.5,3,1,0.41,stimuli/inverted_faces/M31.png,stimuli/inverted_faces/M31morph.png,stimuli/inverted_faces/M31.png,2,faces,long,upright,1,0,,,,,,,,,,,,,0,2,2,2,0,18,18,27,,,,,514.5584801950026,,,,,,,,,,,,514.5431833540206,514.5584801950026,514.5584801950026,514.5441113790148,514.5441464380128,upright,514.5584801950026,519.5573041060125,519.5423294630018,519.5423670180026,0.570018441989919,519.5573041060125,520.1454632890236,520.1252748730185,,,,,,,,,,,,,523.1435924750112,1.2705720712374342,523.1564157200046,524.4397949250124,524.4239714340074,,,,,,,,,,,,,,,,,,,,,,,520.1253128570097,520.1454632890236,520.1454632890236,520.1454632890236,523.1564157200046,523.1564157200046,523.1564157200046,523.1424909910129,right,0,522.4566997210204,0.14938450898625888,,,,,,,,,,,,,,,,,,,001,1,1,False,False,False,False,2025-01-21_10h30.07.108,inversion_effect,2024.1.0,None,2025-01-21 10h30.14.482682 -0800,
stimuli/inverted_faces/faces_stimuli_UpLong.csv,0,5.0,0.5,3,1,0.41,stimuli/inverted_faces/M35.png,stimuli/inverted_faces/M35.png,stimuli/inverted_faces/M35morph.png,1,faces,long,upright,1,0,,,,,,,,,,,,,0,2,2,2,0,19,19,13,,,,,524.4397949250124,,,,,,,,,,,,524.424451643019,524.4397949250124,524.4397949250124,524.4251487020229,524.4251759629988,upright,524.4397949250124,529.4401179320121,529.4245454280172,529.4246006830072,0.5633401681038804,529.4401179320121,530.0105245510058,529.990911661007,,,,,,,,,,,,,533.0093622160202,1.1741159684923892,533.0230823410093,534.2086444830056,534.1917354790203,,,,,,,,,,,,,,,,,,,,,,,529.9909509700083,530.0105245510058,530.0105245510058,530.0105245510058,533.0230823410093,533.0230823410093,533.0230823410093,533.0085696330061,left,0,532.5306325490237,0.11787751800147817,,,,,,,,,,,,,,,,,,,001,1,1,False,False,False,False,2025-01-21_10h30.07.108,inversion_effect,2024.1.0,None,2025-01-21 10h30.14.482682 -0800,
stimuli/inverted_faces/faces_stimuli_UpLong.csv,0,5.0,0.5,3,1,0.41,stimuli/inverted_faces/F10.png,stimuli/inverted_faces/F10.png,stimuli/inverted_faces/F10morph.png,1,faces,long,upright,1,0,,,,,,,,,,,,,0,2,2,2,0,20,20,0,,,,,534.2086444830056,,,,,,,,,,,,534.1923206110077,534.2086444830056,534.2086444830056,534.1932124520245,534.1932416510244,upright,534.2086444830056,539.2237472569977,539.2080994200078,539.2081362990139,0.6302266730218191,539.2237472569977,539.8617306740198,539.8411499520007,,,,,,,,,,,,,542.8583957260125,1.2266721718041775,542.8726900420152,544.1074257740111,544.0912751410215,,,,,,,,,,,,,,,,,,,,,,,539.8412103610171,539.8617306740198,539.8617306740198,539.8617306740198,542.8726900420152,542.8726900420152,542.8726900420152,542.8576954390155,right,0,540.4868975779973,0.12634812900796533,,,,,,,,,,,,,,,,,,,001,1,1,False,False,False,False,2025-01-21_10h30.07.108,inversion_effect,2024.1.0,None,2025-01-21 10h30.14.482682 -0800,
stimuli/inverted_faces/faces_stimuli_UpLong.csv,0,5.0,0.5,3,1,0.41,stimuli/inverted_faces/M123.png,stimuli/inverted_faces/M123morph.png,stimuli/inverted_faces/M123.png,2,faces,long,upright,1,0,,,,,,,,,,,,,0,2,2,2,0,21,21,18,,,,,544.1074257740111,,,,,,,,,,,,544.0918503720022,544.1074257740111,544.1074257740111,544.0927344220108,544.0927684390044,upright,544.1074257740111,549.122789156012,549.1086287140206,549.1086660920118,0.5761758815040656,549.122789156012,549.712352100003,549.692128752009,,,,,,,,,,,,,552.7098579800222,1.0427295068061004,552.7233588950185,553.7758738900011,553.7591016369988,,,,,,,,,,,,,,,,,,,,,,,549.6921669620206,549.712352100003,549.712352100003,549.712352100003,552.7233588950185,552.7233588950185,552.7233588950185,552.7087625139975,right,0,549.734042637021,0.14414278499316424,,,,,,,,,,,,,,,,,,,001,1,1,False,False,False,False,2025-01-21_10h30.07.108,inversion_effect,2024.1.0,None,2025-01-21 10h30.14.482682 -0800,
stimuli/inverted_faces/faces_stimuli_UpLong.csv,0,5.0,0.5,3,1,0.41,stimuli/inverted_faces/F12.png,stimuli/inverted_faces/F12.png,stimuli/inverted_faces/F12morph.png,1,faces,long,upright,1,0,,,,,,,,,,,,,0,2,2,2,0,22,22,2,,,,,553.7758738900011,,,,,,,,,,,,553.7599466970132,553.7758738900011,553.7758738900011,553.7610107640212,553.7610396149976,upright,553.7758738900011,558.7892002820154,558.7742018970021,558.7742405980243,0.682328890167859,558.7892002820154,559.4775170010107,559.4577643710072,,,,,,,,,,,,,562.4754424990097,1.1319907823181445,562.4893208249996,563.625330506009,563.607986033021,,,,,,,,,,,,,,,,,,,,,,,559.4578102730156,559.4775170010107,559.4775170010107,559.4775170010107,562.4893208249996,562.4893208249996,562.4893208249996,562.4747351780243,right,0,560.8910891330161,0.17419786800746806,,,,,,,,,,,,,,,,,,,001,1,1,False,False,False,False,2025-01-21_10h30.07.108,inversion_effect,2024.1.0,None,2025-01-21 10h30.14.482682 -0800,
stimuli/inverted_faces/faces_stimuli_UpLong.csv,0,5.0,0.5,3,1,0.41,stimuli/inverted_faces/M121.png,stimuli/inverted_faces/M121.png,stimuli/inverted_faces/M121morph.png,1,faces,long,upright,1,0,,,,,,,,,,,,,0,2,2,2,0,23,23,7,,,,,563.625330506009,,,,,,,,,,,,563.608628306014,563.625330506009,563.625330506009,563.6094884280174,563.6095115019998,upright,563.625330506009,568.6386944560218,568.6224773430149,568.6224930510216,0.5537532803069829,568.6386944560218,569.2117879940197,569.1908296570182,,,,,,,,,,,,,572.2081745280011,1.1832877945539098,572.2229716980073,573.4085320779996,573.3915182620112,,,,,,,,,,,,,,,,,,,,,,,569.1908674970036,569.2117879940197,569.2117879940197,569.2117879940197,572.2229716980073,572.2229716980073,572.2229716980073,572.2074693440227,left,0,569.7517948170134,0.14511605200823396,,,,,,,,,,,,,,,,,,,001,1,1,False,False,False,False,2025-01-21_10h30.07.108,inversion_effect,2024.1.0,None,2025-01-21 10h30.14.482682 -0800,
stimuli/inverted_faces/faces_stimuli_UpLong.csv,0,5.0,0.5,3,1,0.41,stimuli/inverted_faces/M119.png,stimuli/inverted_faces/M119morph.png,stimuli/inverted_faces/M119.png,2,faces,long,upright,1,0,,,,,,,,,,,,,0,2,2,2,0,24,24,17,,,,,573.4085320779996,,,,,,,,,,,,573.3920807500253,573.4085320779996,573.4085320779996,573.3929269160144,573.3929705500195,upright,573.4085320779996,578.4225283120177,578.4075848750072,578.4076387450041,0.547074259385448,578.4225283120177,578.9760008750018,578.9570086750027,,,,,,,,,,,,,581.973865634005,1.2030175416885696,581.9890575309983,583.2061097120168,583.1896787270089,,,,,,,,,,,,,,,,,,,,,,,578.9570481400006,578.9760008750018,578.9760008750018,578.9760008750018,581.9890575309983,581.9890575309983,581.9890575309983,581.9732911720057,right,0,579.6322657960118,0.1581237349892035,,,,,,,,,,,,,,,,,,,001,1,1,False,False,False,False,2025-01-21_10h30.07.108,inversion_effect,2024.1.0,None,2025-01-21 10h30.14.482682 -0800,
stimuli/inverted_faces/faces_stimuli_UpLong.csv,0,5.0,0.5,3,1,0.41,stimuli/inverted_faces/F7.png,stimuli/inverted_faces/F7.png,stimuli/inverted_faces/F7morph.png,1,faces,long,upright,1,0,,,,,,,,,,,,,0,2,2,2,0,25,25,6,,,,,583.2061097120168,,,,,,,,,,,,583.1902458980039,583.2061097120168,583.2061097120168,583.1914987930213,583.1915286160074,upright,583.2061097120168,588.206099744013,588.1919831330015,588.1920380009979,0.6929998929480401,588.206099744013,588.9134064770187,588.8918834190117,,,,,,,,,,,,,591.9085047480185,1.2152119820905882,591.9232497070043,593.1449103790219,593.1245053510065,,,,,,,,,,,,,,,,,,,,,,,588.8919385360205,588.9134064770187,588.9134064770187,588.9134064770187,591.9232497070043,591.9232497070043,591.9232497070043,591.9078149190173,right,0,589.9877085470071,0.16631799301831052,,,,,,,,,,,,,,,,,,,001,1,1,False,False,False,False,2025-01-21_10h30.07.108,inversion_effect,2024.1.0,None,2025-01-21 10h30.14.482682 -0800,
stimuli/inverted_faces/faces_stimuli_UpLong.csv,0,5.0,0.5,3,1,0.41,stimuli/inverted_faces/M126.png,stimuli/inverted_faces/M126.png,stimuli/inverted_faces/M126morph.png,1,faces,long,upright,1,0,,,,,,,,,,,,,0,2,2,2,0,26,26,9,,,,,593.1449103790219,,,,,,,,,,,,593.1253372470092,593.1449103790219,593.1449103790219,593.1267594590026,593.1268112060206,upright,593.1449103790219,598.1562815840007,598.1404804100166,598.1405162690207,0.6568206532280403,598.1562815840007,598.8275703390245,598.807297086023,,,,,,,,,,,,,601.8241361560067,1.2828092107950373,601.8384577899997,603.1240978510177,603.1077601060097,,,,,,,,,,,,,,,,,,,,,,,598.8073347070022,598.8275703390245,598.8275703390245,598.8275703390245,601.8384577899997,601.8384577899997,601.8384577899997,601.8234262000187,left,0,599.5286687310145,0.14541707499301992,,,,,,,,,,,,,,,,,,,001,1,1,False,False,False,False,2025-01-21_10h30.07.108,inversion_effect,2024.1.0,None,2025-01-21 10h30.14.482682 -0800,
stimuli/inverted_faces/faces_stimuli_UpLong.csv,0,5.0,0.5,3,1,0.41,stimuli/inverted_faces/M127.png,stimuli/inverted_faces/M127morph.png,stimuli/inverted_faces/M127.png,2,faces,long,upright,1,0,,,,,,,,,,,,,0,2,2,2,0,27,27,20,,,,,603.1240978510177,,,,,,,,,,,,603.1083433330059,603.1240978510177,603.1240978510177,603.1094817930134,603.1095163990103,upright,603.1240978510177,608.1394991140114,608.1241317550011,608.1241693440243,0.6587561126429401,608.1394991140114,608.8099872110179,608.7899766160117,,,,,,,,,,,,,611.807393480005,1.1796525507787183,611.8221068100247,613.0937402050185,612.9904777890188,,,,,,,,,,,,,,,,,,,,,,,608.7900128050242,608.8099872110179,608.8099872110179,608.8099872110179,611.8221068100247,611.8221068100247,611.8221068100247,611.8066882420098,right,0,609.6535646060074,0.13313685401226394,,,,,,,,,,,,,,,,,,,001,1,1,False,False,False,False,2025-01-21_10h30.07.108,inversion_effect,2024.1.0,None,2025-01-21 10h30.14.482682 -0800,
stimuli/inverted_faces/faces_stimuli_InvLong.csv,0,5.0,0.5,3,1,0.41,stimuli/inverted_faces/F7.png,stimuli/inverted_faces/F7morph.png,stimuli/inverted_faces/F7.png,2,faces,long,inverted,0,1,,,,,,,,,,,,,0,3,3,3,,,,,0,0,0,18,615.0387769150257,,,,,,,,,,,,615.0270313390065,615.0387769150257,615.0387769150257,615.0279191810114,,inverted,,,,620.0233432420064,0.6652195575456322,620.0392623360094,620.7123189539998,620.6911151940003,,,,,,,,,,,,,623.7058832769981,1.0858153550566025,623.7212451130035,624.8240899550146,624.807617264014,615.0279392439988,615.0387769150257,620.0392623360094,620.0233030439995,,,,,,,,,,,,,,,,,,,,,,,,,,,,,,,613.0861871450034,613.0937402050185,615.0058621280186,620.6911541870213,620.7123189539998,620.7123189539998,620.7123189539998,623.7212451130035,623.7212451130035,623.7212451130035,623.7051786640077,left,0,621.1007060130069,0.14118350701755844,,,,001,1,1,False,False,False,False,2025-01-21_10h30.07.108,inversion_effect,2024.1.0,None,2025-01-21 10h30.14.482682 -0800,
stimuli/inverted_faces/faces_stimuli_InvLong.csv,0,5.0,0.5,3,1,0.41,stimuli/inverted_faces/M122.png,stimuli/inverted_faces/M122morph.png,stimuli/inverted_faces/M122.png,2,faces,long,inverted,0,1,,,,,,,,,,,,,0,3,3,3,,,,,0,1,1,19,624.8240899550146,,,,,,,,,,,,624.8082544970093,624.8240899550146,624.8240899550146,624.8092498470214,,inverted,,,,629.8232014500245,0.5194984376652819,629.8384130860213,630.3725801210094,630.3553554710234,,,,,,,,,,,,,633.3591129230044,1.1457833263583037,633.3715933540079,634.52173743202,634.5063296840235,624.8092851890251,624.8240899550146,629.8384130860213,629.8231609220093,,,,,,,,,,,,,,,,,,,,,,,,,,,,,,,,,,630.3553794489999,630.3725801210094,630.3725801210094,630.3725801210094,633.3715933540079,633.3715933540079,633.3715933540079,633.3580651460215,right,0,631.0527057950094,0.1030533789889887,,,,001,1,1,False,False,False,False,2025-01-21_10h30.07.108,inversion_effect,2024.1.0,None,2025-01-21 10h30.14.482682 -0800,
stimuli/inverted_faces/faces_stimuli_InvLong.csv,0,5.0,0.5,3,1,0.41,stimuli/inverted_faces/M131.png,stimuli/inverted_faces/M131.png,stimuli/inverted_faces/M131morph.png,1,faces,long,inverted,0,1,,,,,,,,,,,,,0,3,3,3,,,,,0,2,2,10,634.52173743202,,,,,,,,,,,,634.5068480150076,634.52173743202,634.52173743202,634.5080618710199,,inverted,,,,639.5068793530227,0.5949723740154734,639.5220786750142,640.1270279530145,640.1070370220114,,,,,,,,,,,,,643.1213338410016,1.1134221400855218,643.1370888750243,644.2554021780088,644.2392220010224,634.5080913210113,634.52173743202,639.5220786750142,639.5068387880165,,,,,,,,,,,,,,,,,,,,,,,,,,,,,,,,,,640.1070715009992,640.1270279530145,640.1270279530145,640.1270279530145,643.1370888750243,643.1370888750243,643.1370888750243,643.121062916005,left,0,640.452137883025,0.11956766599905677,,,,001,1,1,False,False,False,False,2025-01-21_10h30.07.108,inversion_effect,2024.1.0,None,2025-01-21 10h30.14.482682 -0800,
stimuli/inverted_faces/faces_stimuli_InvLong.csv,0,5.0,0.5,3,1,0.41,stimuli/inverted_faces/M32.png,stimuli/inverted_faces/M32morph.png,stimuli/inverted_faces/M32.png,2,faces,long,inverted,0,1,,,,,,,,,,,,,0,3,3,3,,,,,0,3,3,20,644.2554021780088,,,,,,,,,,,,644.2398184300109,644.2554021780088,644.2554021780088,644.2405944170023,,inverted,,,,649.2401767960109,0.6398614877813825,649.254459548014,649.911464061006,649.8899738710024,,,,,,,,,,,,,652.9070336880104,1.1253372869146503,652.9212154120032,654.0575722400099,654.0399128740246,644.2406219000113,644.2554021780088,649.254459548014,649.2401189160009,,,,,,,,,,,,,,,,,,,,,,,,,,,,,,,,,,649.8900285510172,649.911464061006,649.911464061006,649.911464061006,652.9212154120032,652.9212154120032,652.9212154120032,652.9063191780006,right,0,650.5583727400226,0.15938951598946005,,,,001,1,1,False,False,False,False,2025-01-21_10h30.07.108,inversion_effect,2024.1.0,None,2025-01-21 10h30.14.482682 -0800,
stimuli/inverted_faces/faces_stimuli_InvLong.csv,0,5.0,0.5,3,1,0.41,stimuli/inverted_faces/M130.png,stimuli/inverted_faces/M130.png,stimuli/inverted_faces/M130morph.png,1,faces,long,inverted,0,1,,,,,,,,,,,,,0,3,3,3,,,,,0,4,4,9,654.0575722400099,,,,,,,,,,,,654.0407563660119,654.0575722400099,654.0575722400099,654.0417315090017,,inverted,,,,659.0567785820167,0.6319958626136162,659.0725208340154,659.710392398003,659.6903632120229,,,,,,,,,,,,,662.7081076720206,1.057923828379219,662.7224776750081,663.7884513520112,663.772398162022,654.0417976739991,654.0575722400099,659.0725208340154,659.0567203700193,,,,,,,,,,,,,,,,,,,,,,,,,,,,,,,,,,659.6904007520061,659.710392398003,659.710392398003,659.710392398003,662.7224776750081,662.7224776750081,662.7224776750081,662.7074119300232,left,0,660.3534613079973,0.11630922902259044,,,,001,1,1,False,False,False,False,2025-01-21_10h30.07.108,inversion_effect,2024.1.0,None,2025-01-21 10h30.14.482682 -0800,
stimuli/inverted_faces/faces_stimuli_InvLong.csv,0,5.0,0.5,3,1,0.41,stimuli/inverted_faces/M22.png,stimuli/inverted_faces/M22morph.png,stimuli/inverted_faces/M22.png,2,faces,long,inverted,0,1,,,,,,,,,,,,,0,3,3,3,,,,,0,5,5,26,663.7884513520112,,,,,,,,,,,,663.772987807024,663.7884513520112,663.7884513520112,663.7737900300126,,inverted,,,,668.7729994130204,0.5745028324053809,668.7882070479973,669.3756573230203,669.3560161710193,,,,,,,,,,,,,672.3736415739986,1.0645296367229038,672.3876186500129,673.4570749210252,673.4398904910195,663.7738189980155,663.7884513520112,668.7882070479973,668.7729600570165,,,,,,,,,,,,,,,,,,,,,,,,,,,,,,,,,,669.3560526250221,669.3756573230203,669.3756573230203,669.3756573230203,672.3876186500129,672.3876186500129,672.3876186500129,672.3729322410072,right,0,670.2348383729986,0.13304877901100554,,,,001,1,1,False,False,False,False,2025-01-21_10h30.07.108,inversion_effect,2024.1.0,None,2025-01-21 10h30.14.482682 -0800,
stimuli/inverted_faces/faces_stimuli_InvLong.csv,0,5.0,0.5,3,1,0.41,stimuli/inverted_faces/M126.png,stimuli/inverted_faces/M126.png,stimuli/inverted_faces/M126morph.png,1,faces,long,inverted,0,1,,,,,,,,,,,,,0,3,3,3,,,,,0,6,6,2,673.4570749210252,,,,,,,,,,,,673.4404750220128,673.4570749210252,673.4570749210252,673.4414272420108,,inverted,,,,678.4563577900117,0.5294203089676113,678.4707662660221,679.0039240940241,678.9878005220089,,,,,,,,,,,,,681.9903062270023,1.1627528869777326,682.0045357330237,683.1733199570153,683.1557520790084,673.441472157021,673.4570749210252,678.4707662660221,678.4563212740177,,,,,,,,,,,,,,,,,,,,,,,,,,,,,,,,,,678.9878189460142,679.0039240940241,679.0039240940241,679.0039240940241,682.0045357330237,682.0045357330237,682.0045357330237,681.989611195022,left,0,680.117393942026,0.10764313998515718,,,,001,1,1,False,False,False,False,2025-01-21_10h30.07.108,inversion_effect,2024.1.0,None,2025-01-21 10h30.14.482682 -0800,
stimuli/inverted_faces/faces_stimuli_InvLong.csv,0,5.0,0.5,3,1,0.41,stimuli/inverted_faces/F10.png,stimuli/inverted_faces/F10.png,stimuli/inverted_faces/F10morph.png,1,faces,long,inverted,0,1,,,,,,,,,,,,,0,3,3,3,,,,,0,7,7,13,683.1733199570153,,,,,,,,,,,,683.1563057440217,683.1733199570153,683.1733199570153,683.1571349620062,,inverted,,,,688.1731581500208,0.6115066974237139,688.1870982170221,688.809007362026,688.7889627800032,,,,,,,,,,,,,691.8072106630134,1.0657932721843788,691.8212158730021,692.8876077790046,692.8717468710092,683.157169707003,683.1733199570153,688.1870982170221,688.1731014150137,,,,,,,,,,,,,,,,,,,,,,,,,,,,,,,,,,688.7890012490097,688.809007362026,688.809007362026,688.809007362026,691.8212158730021,691.8212158730021,691.8212158730021,691.8065021720249,left,0,690.0549687989987,0.12943819400970824,,,,001,1,1,False,False,False,False,2025-01-21_10h30.07.108,inversion_effect,2024.1.0,None,2025-01-21 10h30.14.482682 -0800,
stimuli/inverted_faces/faces_stimuli_InvLong.csv,0,5.0,0.5,3,1,0.41,stimuli/inverted_faces/F11.png,stimuli/inverted_faces/F11morph.png,stimuli/inverted_faces/F11.png,2,faces,long,inverted,0,1,,,,,,,,,,,,,0,3,3,3,,,,,0,8,8,14,692.8876077790046,,,,,,,,,,,,692.8721098700189,692.8876077790046,692.8876077790046,692.8726998190104,,inverted,,,,697.8729077340104,0.6602448360715674,697.8886139250244,698.5597175200237,698.5391902270203,,,,,,,,,,,,,701.5561607830168,1.2517294363804432,701.5713650840044,702.8397760170046,702.8223461750022,692.8727211960068,692.8876077790046,697.8886139250244,697.8728696560138,,,,,,,,,,,,,,,,,,,,,,,,,,,,,,,,,,698.5392278360086,698.5597175200237,698.5597175200237,698.5597175200237,701.5713650840044,701.5713650840044,701.5713650840044,701.5554541800229,right,0,699.3528928630112,0.10290789999999106,,,,001,1,1,False,False,False,False,2025-01-21_10h30.07.108,inversion_effect,2024.1.0,None,2025-01-21 10h30.14.482682 -0800,
stimuli/inverted_faces/faces_stimuli_InvLong.csv,0,5.0,0.5,3,1,0.41,stimuli/inverted_faces/M123.png,stimuli/inverted_faces/M123.png,stimuli/inverted_faces/M123morph.png,1,faces,long,inverted,0,1,,,,,,,,,,,,,0,3,3,3,,,,,0,9,9,7,702.8397760170046,,,,,,,,,,,,702.8229518800217,702.8397760170046,702.8397760170046,702.8239270320046,,inverted,,,,707.8386052020069,0.6243205450199808,707.8539838240249,708.4921879290196,708.4724595440202,,,,,,,,,,,,,711.4890374530223,1.0814014780544008,711.5040551410057,712.5895382800081,712.5727939690114,702.8239617750223,702.8397760170046,707.8539838240249,707.838570863998,,,,,,,,,,,,,,,,,,,,,,,,,,,,,,,,,,708.4724967060029,708.4921879290196,708.4921879290196,708.4921879290196,711.5040551410057,711.5040551410057,711.5040551410057,711.4883419969992,left,0,709.1696328100224,0.12156637100270018,,,,001,1,1,False,False,False,False,2025-01-21_10h30.07.108,inversion_effect,2024.1.0,None,2025-01-21 10h30.14.482682 -0800,
stimuli/inverted_faces/faces_stimuli_InvLong.csv,0,5.0,0.5,3,1,0.41,stimuli/inverted_faces/F16.png,stimuli/inverted_faces/F16morph.png,stimuli/inverted_faces/F16.png,2,faces,long,inverted,0,1,,,,,,,,,,,,,0,3,3,3,,,,,0,10,10,21,712.5895382800081,,,,,,,,,,,,712.5735904410249,712.5895382800081,712.5895382800081,712.5749226199987,,inverted,,,,717.5888624950021,0.6223960898832869,717.6041964290198,718.2417387330206,718.222146878019,,,,,,,,,,,,,721.2394192659995,1.1123187413720665,721.2536803250259,722.3711042570067,722.355019309005,712.5749576170056,712.5895382800081,717.6041964290198,717.5888118669973,,,,,,,,,,,,,,,,,,,,,,,,,,,,,,,,,,718.2221854600066,718.2417387330206,718.2417387330206,718.2417387330206,721.2536803250259,721.2536803250259,721.2536803250259,721.238723485003,left,0,719.9972764590057,0.1102457590168342,,,,001,1,1,False,False,False,False,2025-01-21_10h30.07.108,inversion_effect,2024.1.0,None,2025-01-21 10h30.14.482682 -0800,
stimuli/inverted_faces/faces_stimuli_InvLong.csv,0,5.0,0.5,3,1,0.41,stimuli/inverted_faces/M119.png,stimuli/inverted_faces/M119.png,stimuli/inverted_faces/M119morph.png,1,faces,long,inverted,0,1,,,,,,,,,,,,,0,3,3,3,,,,,0,11,11,6,722.3711042570067,,,,,,,,,,,,722.3556141720037,722.3711042570067,722.3711042570067,722.3565308280231,,inverted,,,,727.3563554139982,0.5339875206399995,727.3717278749973,727.9246572890261,727.9061135600205,,,,,,,,,,,,,730.9237594180158,1.0983162962591961,730.9381684260152,732.039771656011,732.0226683100045,722.3565650770033,722.3711042570067,727.3717278749973,727.3563151460257,,,,,,,,,,,,,,,,,,,,,,,,,,,,,,,,,,727.9061450220179,727.9246572890261,727.9246572890261,727.9246572890261,730.9381684260152,730.9381684260152,730.9381684260152,730.9230154090037,left,0,728.5845500480209,0.09168411398422904,,,,001,1,1,False,False,False,False,2025-01-21_10h30.07.108,inversion_effect,2024.1.0,None,2025-01-21 10h30.14.482682 -0800,
stimuli/inverted_faces/faces_stimuli_InvLong.csv,0,5.0,0.5,3,1,0.41,stimuli/inverted_faces/M125.png,stimuli/inverted_faces/M125morph.png,stimuli/inverted_faces/M125.png,2,faces,long,inverted,0,1,,,,,,,,,,,,,0,3,3,3,,,,,0,12,12,24,732.039771656011,,,,,,,,,,,,732.0233945290092,732.039771656011,732.039771656011,732.0243882670184,,inverted,,,,737.0387570520106,0.670062172350521,737.0533093250124,737.7420967610087,737.7222323250026,,,,,,,,,,,,,740.7389735580073,1.014899517067693,740.753721193003,741.7729213710118,741.755783915025,732.0244231750257,732.039771656011,737.0533093250124,737.0387165380234,,,,,,,,,,,,,,,,,,,,,,,,,,,,,,,,,,737.7222689490009,737.7420967610087,737.7420967610087,737.7420967610087,740.753721193003,740.753721193003,740.753721193003,740.7382711320242,right,0,738.53075304901,0.10726984101347625,,,,001,1,1,False,False,False,False,2025-01-21_10h30.07.108,inversion_effect,2024.1.0,None,2025-01-21 10h30.14.482682 -0800,
