block_list,fix_dur,target_dur,isi_dur,probe_dur,iti_dur,stim_size,target_list,probe_L,probe_R,correct_resp,condStim,condDur,condOrient,upright_flag,inverted_flag,blocks_practice.thisRepN,blocks_practice.thisTrialN,blocks_practice.thisN,blocks_practice.thisIndex,trials_practice_up.thisRepN,trials_practice_up.thisTrialN,trials_practice_up.thisN,trials_practice_up.thisIndex,trials_practice_inv.thisRepN,trials_practice_inv.thisTrialN,trials_practice_inv.thisN,trials_practice_inv.thisIndex,blocks_order.thisRepN,blocks_order.thisTrialN,blocks_order.thisN,blocks_order.thisIndex,trials_upright.thisRepN,trials_upright.thisTrialN,trials_upright.thisN,trials_upright.thisIndex,trials_inverted.thisRepN,trials_inverted.thisTrialN,trials_inverted.thisN,trials_inverted.thisIndex,thisRow.t,notes,Start.started,Start.stopped,instrPractice.started,key_resp_practice.started,instrPractice.stopped,key_resp_practice.keys,key_resp_practice.rt,key_resp_practice.duration,getReady.started,getReady.stopped,Fixation.started,text_fixation.started,text_fixation.stopped,Fixation.stopped,EncodingUpright.started,orient,image_target_upright.started,image_target_upright.stopped,EncodingUpright.stopped,ISI.started,isi_jittered,text_isi.started,text_isi.stopped,ISI.stopped,ProbeUpPractice.started,image_probePrac_up_left.started,image_probePrace_up_right.started,key_resp_up_prac.started,image_probePrac_up_left.stopped,image_probePrace_up_right.stopped,key_resp_up_prac.stopped,ProbeUpPractice.stopped,key_resp_up_prac.keys,key_resp_up_prac.corr,key_resp_up_prac.rt,key_resp_up_prac.duration,ITI.started,iti_jittered,text_iti.started,text_iti.stopped,ITI.stopped,EncodingInverted.started,image_target_inverted.started,image_target_inverted.stopped,EncodingInverted.stopped,ProbeInvPractice.started,image_probePrac_inv_left.started,image_probePrace_inv_right.started,key_resp_inv_prac.started,image_probePrac_inv_left.stopped,image_probePrace_inv_right.stopped,key_resp_inv_prac.stopped,ProbeInvPractice.stopped,key_resp_inv_prac.keys,key_resp_inv_prac.corr,key_resp_inv_prac.rt,key_resp_inv_prac.duration,FB_Practice.started,key_resp_endPractice.started,FB_Practice.stopped,key_resp_endPractice.keys,key_resp_endPractice.rt,key_resp_endPractice.duration,ProbeUpright.started,image_probe_upright_left.started,image_probe_upright_right.started,key_resp_upright.started,image_probe_upright_left.stopped,image_probe_upright_right.stopped,key_resp_upright.stopped,ProbeUpright.stopped,key_resp_upright.keys,key_resp_upright.corr,key_resp_upright.rt,key_resp_upright.duration,IBI.started,text_ibi.started,IBI.stopped,ProbeInverted.started,image_probe_inverted_left.started,image_probe_inverted_right.started,key_resp_inverted.started,image_probe_inverted_left.stopped,image_probe_inverted_right.stopped,key_resp_inverted.stopped,ProbeInverted.stopped,key_resp_inverted.keys,key_resp_inverted.corr,key_resp_inverted.rt,key_resp_inverted.duration,ThankYou.started,text_thanks.started,ThankYou.stopped,participant,session,order,EEG,EyeLink,EyeTribe,Calibrate,date,expName,psychopyVersion,frameRate,expStart,
,,,,,,,,,,,,,,,,,,,,,,,,,,,,,,,,,,,,,,,,,,0.026403900235891342,0.02675850037485361,,,,,,,,,,,,,,,,,,,,,,,,,,,,,,,,,,,,,,,,,,,,,,,,,,,,,,,,,,,,,,,,,,,,,,,,,,,,,,,,,,,,,,,,,,,,101,1,1,False,False,False,False,2025-02-04_10h32.07.219,inversion_effect,2024.1.0,None,2025-02-04 10h32.27.121280 -0800,
,,,,,,,,,,,,,,,,,,,,,,,,,,,,,,,,,,,,,,,,,,,,0.026770000346004963,0.03321610018610954,23.1584246000275,space,23.147516700439155,None,,,,,,,,,,,,,,,,,,,,,,,,,,,,,,,,,,,,,,,,,,,,,,,,,,,,,,,,,,,,,,,,,,,,,,,,,,,,,,,,,,,,,,101,1,1,False,False,False,False,2025-02-04_10h32.07.219,inversion_effect,2024.1.0,None,2025-02-04 10h32.27.121280 -0800,
stimuli/practice_stimuli.csv,0.5,5,0.5,3,0.5,0.41,stimuli/inverted_faces/M125.png,stimuli/inverted_faces/M125morph.png,stimuli/inverted_faces/M125.png,2,,,,,,0,0,0,0,0,0,0,0,,,,,,,,,,,,,,,,,28.16897409968078,,,,,,,,,,23.162436599843204,28.160746400244534,28.165791199542582,28.16897409968078,28.690402699634433,28.652869899757206,28.65289149992168,upright,28.690402699634433,33.68727589957416,33.678892199881375,33.678925399668515,0.6278026077972256,33.68727589957416,34.31930929981172,34.30386359989643,34.30389569979161,34.31930929981172,34.31930929981172,34.31930929981172,37.31202210020274,37.31202210020274,37.31202210020274,37.304409800097346,right,0,35.63563650008291,0.14393839985132217,37.305061699822545,0.702845657030531,37.31202210020274,38.05678540002555,38.00433500017971,,,,,,,,,,,,,,,,,,,,,,,,,,,,,,,,,,,,,,,,,,,,,,,,,,,,,101,1,1,False,False,False,False,2025-02-04_10h32.07.219,inversion_effect,2024.1.0,None,2025-02-04 10h32.27.121280 -0800,
stimuli/practice_stimuli.csv,0.5,5,0.5,3,0.5,0.41,stimuli/inverted_faces/F10.png,stimuli/inverted_faces/F10morph.png,stimuli/inverted_faces/F10.png,2,,,,,,0,0,0,0,,,,,0,0,0,0,,,,,,,,,,,,,38.05678540002555,,,,,,,,,,,,38.05443030036986,38.05678540002555,38.55507090035826,38.546012500301,,inverted,,,,43.53854370024055,0.6794580746871224,43.546329599805176,44.22627430036664,44.2137606004253,,,,,,,,,,,,,47.21486369986087,0.531027631163211,47.22180979978293,47.78846819978207,47.739141600206494,38.546033799648285,38.55507090035826,43.546329599805176,43.538518600165844,44.21378770004958,44.22627430036664,44.22627430036664,44.22627430036664,47.22180979978293,47.22180979978293,47.22180979978293,47.21420370042324,right,0,45.24392069969326,0.1511190002784133,,,,,,,,,,,,,,,,,,,,,,,,,,,,,,,,,,,,,101,1,1,False,False,False,False,2025-02-04_10h32.07.219,inversion_effect,2024.1.0,None,2025-02-04 10h32.27.121280 -0800,
,,,,,,,,,,,,,,,,,,,,,,,,,,,,,,,,,,,,,,,,,,,,,,,,,,,,,,,,,,,,,,,,,,,,,,,,,,,,,,,,,,,,,,,,,,,,,,,,,,,47.76468240004033,47.78846819978207,53.34075620025396,space,53.33946549985558,None,,,,,,,,,,,,,,,,,,,,,,,,,,,,,,,101,1,1,False,False,False,False,2025-02-04_10h32.07.219,inversion_effect,2024.1.0,None,2025-02-04 10h32.27.121280 -0800,
,,,,,,,,,,,,,,,,,,,,,,,,,,,,,,,,,,,,,,,,,,,,,,,,,,53.34080010000616,58.33246270008385,,,,,,,,,,,,,,,,,,,,,,,,,,,,,,,,,,,,,,,,,,,,,,,,,,,,,,,,,,,,,,,,,,,,,,,,,,,,,,,,,,,,101,1,1,False,False,False,False,2025-02-04_10h32.07.219,inversion_effect,2024.1.0,None,2025-02-04 10h32.27.121280 -0800,
stimuli/inverted_faces/faces_stimuli_UpShort.csv,0,0.5,0.5,3,1,0.41,stimuli/inverted_faces/F7.png,stimuli/inverted_faces/F7.png,stimuli/inverted_faces/F7morph.png,1,faces,short,upright,1,0,,,,,,,,,,,,,0,0,0,0,0,0,0,6,,,,,58.34713150002062,,,,,,,,,,,,58.342750100418925,58.34713150002062,58.34713150002062,58.34293039981276,58.34293770045042,upright,58.34713150002062,58.84043850004673,58.83272469975054,58.832748799584806,0.522016616272164,58.84043850004673,59.3611864997074,59.348883599974215,,,,,,,,,,,,,62.35023299977183,1.00208507989905,62.357609500177205,63.35889539960772,63.34981319960207,,,,,,,,,,,,,,,,,,,,,,,59.3489014999941,59.3611864997074,59.3611864997074,59.3611864997074,62.357609500177205,62.357609500177205,62.357609500177205,62.34976959973574,left,0,60.28396700043231,0.14305489975959063,,,,,,,,,,,,,,,,,,,101,1,1,False,False,False,False,2025-02-04_10h32.07.219,inversion_effect,2024.1.0,None,2025-02-04 10h32.27.121280 -0800,
stimuli/inverted_faces/faces_stimuli_UpShort.csv,0,0.5,0.5,3,1,0.41,stimuli/inverted_faces/M123.png,stimuli/inverted_faces/M123morph.png,stimuli/inverted_faces/M123.png,2,faces,short,upright,1,0,,,,,,,,,,,,,0,0,0,0,0,1,1,18,,,,,63.35889539960772,,,,,,,,,,,,63.350129899568856,63.35889539960772,63.35889539960772,63.350459000095725,63.35047509986907,upright,63.35889539960772,63.849503099918365,63.842093399725854,63.842123500071466,0.6405923765980867,63.849503099918365,64.48653439991176,64.47511050011963,,,,,,,,,,,,,67.47652759961784,1.1108430344250522,67.48342469986528,68.5943141002208,68.58417479973286,,,,,,,,,,,,,,,,,,,,,,,64.47513770032674,64.48653439991176,64.48653439991176,64.48653439991176,67.48342469986528,67.48342469986528,67.48342469986528,67.47595600038767,right,0,65.2110106004402,0.15234539937227964,,,,,,,,,,,,,,,,,,,101,1,1,False,False,False,False,2025-02-04_10h32.07.219,inversion_effect,2024.1.0,None,2025-02-04 10h32.27.121280 -0800,
stimuli/inverted_faces/faces_stimuli_UpShort.csv,0,0.5,0.5,3,1,0.41,stimuli/inverted_faces/F16.png,stimuli/inverted_faces/F16morph.png,stimuli/inverted_faces/F16.png,2,faces,short,upright,1,0,,,,,,,,,,,,,0,0,0,0,0,2,2,14,,,,,68.5943141002208,,,,,,,,,,,,68.58466670010239,68.5943141002208,68.5943141002208,68.58506549987942,68.58508650027215,upright,68.5943141002208,69.09205379988998,69.08441440016031,69.08444389980286,0.654577668259598,69.09205379988998,69.74655039981008,69.73436670005322,,,,,,,,,,,,,72.73513850010931,1.0389152986482273,72.74252950027585,73.8008422004059,73.76803799998015,,,,,,,,,,,,,,,,,,,,,,,69.73439210001379,69.74655039981008,69.74655039981008,69.74655039981008,72.74252950027585,72.74252950027585,72.74252950027585,72.73471789993346,right,0,70.50785479974002,0.15198060031980276,,,,,,,,,,,,,,,,,,,101,1,1,False,False,False,False,2025-02-04_10h32.07.219,inversion_effect,2024.1.0,None,2025-02-04 10h32.27.121280 -0800,
stimuli/inverted_faces/faces_stimuli_UpShort.csv,0,0.5,0.5,3,1,0.41,stimuli/inverted_faces/F11.png,stimuli/inverted_faces/F11.png,stimuli/inverted_faces/F11morph.png,1,faces,short,upright,1,0,,,,,,,,,,,,,0,0,0,0,0,3,3,1,,,,,73.8008422004059,,,,,,,,,,,,73.76836139988154,73.8008422004059,73.8008422004059,73.76866520009935,73.7686812998727,upright,73.8008422004059,74.29249639995396,74.28502329997718,74.28504949994385,0.6290721298839181,74.29249639995396,74.91932030022144,74.90961609967053,,,,,,,,,,,,,77.90285640023649,1.2463085604700102,77.90983819961548,79.15311320032924,79.14384349994361,,,,,,,,,,,,,,,,,,,,,,,74.90963250026107,74.91932030022144,74.91932030022144,74.91932030022144,77.90983819961548,77.90983819961548,77.90983819961548,77.90232590027153,left,0,75.5552984001115,0.14375600032508373,,,,,,,,,,,,,,,,,,,101,1,1,False,False,False,False,2025-02-04_10h32.07.219,inversion_effect,2024.1.0,None,2025-02-04 10h32.27.121280 -0800,
stimuli/inverted_faces/faces_stimuli_UpShort.csv,0,0.5,0.5,3,1,0.41,stimuli/inverted_faces/M35.png,stimuli/inverted_faces/M35.png,stimuli/inverted_faces/M35morph.png,1,faces,short,upright,1,0,,,,,,,,,,,,,0,0,0,0,0,4,4,13,,,,,79.15311320032924,,,,,,,,,,,,79.14424019958824,79.15311320032924,79.15311320032924,79.1446144003421,79.14463290013373,upright,79.15311320032924,79.65169909968972,79.64382230024785,79.64384439960122,0.5015295822260297,79.65169909968972,80.1556837996468,80.14415379986167,,,,,,,,,,,,,83.1451129000634,1.2238425842763878,83.15221960004419,84.3705438002944,84.36151670012623,,,,,,,,,,,,,,,,,,,,,,,80.14418330043554,80.1556837996468,80.1556837996468,80.1556837996468,83.15221960004419,83.15221960004419,83.15221960004419,83.14461550023407,right,0,80.98753590043634,0.15976700000464916,,,,,,,,,,,,,,,,,,,101,1,1,False,False,False,False,2025-02-04_10h32.07.219,inversion_effect,2024.1.0,None,2025-02-04 10h32.27.121280 -0800,
stimuli/inverted_faces/faces_stimuli_UpShort.csv,0,0.5,0.5,3,1,0.41,stimuli/inverted_faces/F12.png,stimuli/inverted_faces/F12.png,stimuli/inverted_faces/F12morph.png,1,faces,short,upright,1,0,,,,,,,,,,,,,0,0,0,0,0,5,5,2,,,,,84.3705438002944,,,,,,,,,,,,84.36193380039185,84.3705438002944,84.3705438002944,84.36238600034267,84.36241280008107,upright,84.3705438002944,84.86913319956511,84.86161039955914,84.86164020001888,0.5858994302753169,84.86913319956511,85.45717599987984,85.44511490035802,,,,,,,,,,,,,88.44615739956498,1.186519897423709,88.45305170025676,89.66311089973897,89.62884460017085,,,,,,,,,,,,,,,,,,,,,,,85.44514440000057,85.45717599987984,85.45717599987984,85.45717599987984,88.45305170025676,88.45305170025676,88.45305170025676,88.44556420017034,left,0,86.07581350021064,0.15122490003705025,,,,,,,,,,,,,,,,,,,101,1,1,False,False,False,False,2025-02-04_10h32.07.219,inversion_effect,2024.1.0,None,2025-02-04 10h32.27.121280 -0800,
stimuli/inverted_faces/faces_stimuli_UpShort.csv,0,0.5,0.5,3,1,0.41,stimuli/inverted_faces/M31.png,stimuli/inverted_faces/M31morph.png,stimuli/inverted_faces/M31.png,2,faces,short,upright,1,0,,,,,,,,,,,,,0,0,0,0,0,6,6,27,,,,,89.66311089973897,,,,,,,,,,,,89.62924570031464,89.66311089973897,89.66311089973897,89.6297281999141,89.62975540012121,upright,89.66311089973897,90.1616655997932,90.15404799953103,90.15407699998468,0.5408034382965368,90.1616655997932,90.69950489979237,90.68721590004861,,,,,,,,,,,,,93.68825109954923,1.2444264282217046,93.69543919991702,94.94038259983063,94.92994930036366,,,,,,,,,,,,,,,,,,,,,,,90.68724210001528,90.69950489979237,90.69950489979237,90.69950489979237,93.69543919991702,93.69543919991702,93.69543919991702,93.687774900347,right,0,91.71507630031556,0.1600070996209979,,,,,,,,,,,,,,,,,,,101,1,1,False,False,False,False,2025-02-04_10h32.07.219,inversion_effect,2024.1.0,None,2025-02-04 10h32.27.121280 -0800,
stimuli/inverted_faces/faces_stimuli_UpShort.csv,0,0.5,0.5,3,1,0.41,stimuli/inverted_faces/M129.png,stimuli/inverted_faces/M129.png,stimuli/inverted_faces/M129morph.png,1,faces,short,upright,1,0,,,,,,,,,,,,,0,0,0,0,0,7,7,10,,,,,94.94038259983063,,,,,,,,,,,,94.93044910021126,94.94038259983063,94.94038259983063,94.93098049983382,94.93100859969854,upright,94.94038259983063,95.43739159964025,95.42979499977082,95.42982549965382,0.6591961976620653,95.43739159964025,96.09259460028261,96.07992460019886,,,,,,,,,,,,,99.08089290000498,1.2104920893983002,99.08789919968694,100.2988243997097,100.28869619965553,,,,,,,,,,,,,,,,,,,,,,,96.07995599973947,96.09259460028261,96.09259460028261,96.09259460028261,99.08789919968694,99.08789919968694,99.08789919968694,99.08037369977683,left,0,97.2672576000914,0.1365395998582244,,,,,,,,,,,,,,,,,,,101,1,1,False,False,False,False,2025-02-04_10h32.07.219,inversion_effect,2024.1.0,None,2025-02-04 10h32.27.121280 -0800,
stimuli/inverted_faces/faces_stimuli_UpShort.csv,0,0.5,0.5,3,1,0.41,stimuli/inverted_faces/M128.png,stimuli/inverted_faces/M128morph.png,stimuli/inverted_faces/M128.png,2,faces,short,upright,1,0,,,,,,,,,,,,,0,0,0,0,0,8,8,21,,,,,100.2988243997097,,,,,,,,,,,,100.28909000009298,100.2988243997097,100.2988243997097,100.28950219973922,100.2895208997652,upright,100.2988243997097,100.7965131001547,100.78872079961002,100.78874509967864,0.6541133366680296,100.7965131001547,101.4491873998195,101.43858109973371,,,,,,,,,,,,,104.43968079984188,1.113623351580547,104.44702180009335,105.58140490017831,105.54790479969233,,,,,,,,,,,,,,,,,,,,,,,101.43860180024058,101.4491873998195,101.4491873998195,101.4491873998195,104.44702180009335,104.44702180009335,104.44702180009335,104.43928689975291,right,0,101.94701620005071,0.15259069949388504,,,,,,,,,,,,,,,,,,,101,1,1,False,False,False,False,2025-02-04_10h32.07.219,inversion_effect,2024.1.0,None,2025-02-04 10h32.27.121280 -0800,
stimuli/inverted_faces/faces_stimuli_UpShort.csv,0,0.5,0.5,3,1,0.41,stimuli/inverted_faces/M21.png,stimuli/inverted_faces/M21.png,stimuli/inverted_faces/M21morph.png,1,faces,short,upright,1,0,,,,,,,,,,,,,0,0,0,0,0,9,9,11,,,,,105.58140490017831,,,,,,,,,,,,105.54819529969245,105.58140490017831,105.58140490017831,105.54851110000163,105.54852660000324,upright,105.58140490017831,106.07233239989728,106.064517499879,106.06453949958086,0.6914213789889979,106.07233239989728,106.76083530019969,106.74778939969838,,,,,,,,,,,,,109.74893399979919,1.1271475381741973,109.7561414996162,110.90747150033712,110.87332590017468,,,,,,,,,,,,,,,,,,,,,,,106.74780630040914,106.76083530019969,106.76083530019969,106.76083530019969,109.7561414996162,109.7561414996162,109.7561414996162,109.74854619987309,right,0,108.98816409986466,0.15082210022956133,,,,,,,,,,,,,,,,,,,101,1,1,False,False,False,False,2025-02-04_10h32.07.219,inversion_effect,2024.1.0,None,2025-02-04 10h32.27.121280 -0800,
stimuli/inverted_faces/faces_stimuli_UpShort.csv,0,0.5,0.5,3,1,0.41,stimuli/inverted_faces/M130.png,stimuli/inverted_faces/M130morph.png,stimuli/inverted_faces/M130.png,2,faces,short,upright,1,0,,,,,,,,,,,,,0,0,0,0,0,10,10,22,,,,,110.90747150033712,,,,,,,,,,,,110.87361949961632,110.90747150033712,110.90747150033712,110.87388980016112,110.8739039003849,upright,110.90747150033712,111.3979820003733,111.3903839001432,111.3904093997553,0.6318368109081698,111.3979820003733,112.02797670010477,112.01522769965231,,,,,,,,,,,,,115.01680819969624,1.1206306196965055,115.0236000996083,116.14269149955362,116.13290470000356,,,,,,,,,,,,,,,,,,,,,,,112.01524520013481,112.02797670010477,112.02797670010477,112.02797670010477,115.0236000996083,115.0236000996083,115.0236000996083,115.01624410040677,right,0,113.33117759972811,0.16010130010545254,,,,,,,,,,,,,,,,,,,101,1,1,False,False,False,False,2025-02-04_10h32.07.219,inversion_effect,2024.1.0,None,2025-02-04 10h32.27.121280 -0800,
stimuli/inverted_faces/faces_stimuli_UpShort.csv,0,0.5,0.5,3,1,0.41,stimuli/inverted_faces/F15.png,stimuli/inverted_faces/F15.png,stimuli/inverted_faces/F15morph.png,1,faces,short,upright,1,0,,,,,,,,,,,,,0,0,0,0,0,11,11,4,,,,,116.14269149955362,,,,,,,,,,,,116.13339569978416,116.14269149955362,116.14269149955362,116.133883100003,116.13391030021012,upright,116.14269149955362,116.64058179967105,116.63317910023034,116.63320850022137,0.5487275929325519,116.64058179967105,117.18575000017881,117.17439469974488,,,,,,,,,,,,,120.1752810003236,1.1646981983437426,120.18274439964443,121.3435364998877,121.3335309997201,,,,,,,,,,,,,,,,,,,,,,,117.17441810015589,117.18575000017881,117.18575000017881,117.18575000017881,120.18274439964443,120.18274439964443,120.18274439964443,120.17494039982557,left,0,118.16370650008321,0.10403509996831417,,,,,,,,,,,,,,,,,,,101,1,1,False,False,False,False,2025-02-04_10h32.07.219,inversion_effect,2024.1.0,None,2025-02-04 10h32.27.121280 -0800,
stimuli/inverted_faces/faces_stimuli_UpShort.csv,0,0.5,0.5,3,1,0.41,stimuli/inverted_faces/M131.png,stimuli/inverted_faces/M131morph.png,stimuli/inverted_faces/M131.png,2,faces,short,upright,1,0,,,,,,,,,,,,,0,0,0,0,0,12,12,23,,,,,121.3435364998877,,,,,,,,,,,,121.33399809990078,121.3435364998877,121.3435364998877,121.3343663001433,121.33438440039754,upright,121.3435364998877,121.8413568995893,121.83358830027282,121.83361180033535,0.57046040414581,121.8413568995893,122.41122080013156,122.40009289979935,,,,,,,,,,,,,125.40164809953421,1.0824263281428355,125.40851350035518,126.48375579994172,126.47587999980897,,,,,,,,,,,,,,,,,,,,,,,122.40011429972947,122.41122080013156,122.41122080013156,122.41122080013156,125.40851350035518,125.40851350035518,125.40851350035518,125.40111050009727,right,0,122.93967110011727,0.12003959994763136,,,,,,,,,,,,,,,,,,,101,1,1,False,False,False,False,2025-02-04_10h32.07.219,inversion_effect,2024.1.0,None,2025-02-04 10h32.27.121280 -0800,
stimuli/inverted_faces/faces_stimuli_UpShort.csv,0,0.5,0.5,3,1,0.41,stimuli/inverted_faces/M125.png,stimuli/inverted_faces/M125morph.png,stimuli/inverted_faces/M125.png,2,faces,short,upright,1,0,,,,,,,,,,,,,0,0,0,0,0,13,13,19,,,,,126.48375579994172,,,,,,,,,,,,126.47630889993161,126.48375579994172,126.48375579994172,126.47670060023665,126.47671759966761,upright,126.48375579994172,126.97537000011653,126.96788990031928,126.96791980043054,0.6367225726610312,126.97537000011653,127.60904890019447,127.60087000019848,,,,,,,,,,,,,130.59386190026999,1.0990684614089203,130.6008804999292,131.7186422003433,131.68481449969113,,,,,,,,,,,,,,,,,,,,,,,127.60088840033859,127.60904890019447,127.60904890019447,127.60904890019447,130.6008804999292,130.6008804999292,130.6008804999292,130.59339720010757,left,0,128.81912759970874,0.10395709984004498,,,,,,,,,,,,,,,,,,,101,1,1,False,False,False,False,2025-02-04_10h32.07.219,inversion_effect,2024.1.0,None,2025-02-04 10h32.27.121280 -0800,
stimuli/inverted_faces/faces_stimuli_UpShort.csv,0,0.5,0.5,3,1,0.41,stimuli/inverted_faces/F18.png,stimuli/inverted_faces/F18.png,stimuli/inverted_faces/F18morph.png,1,faces,short,upright,1,0,,,,,,,,,,,,,0,0,0,0,0,14,14,5,,,,,131.7186422003433,,,,,,,,,,,,131.68518150039017,131.7186422003433,131.7186422003433,131.68549409974366,131.68551020044833,upright,131.7186422003433,132.2095485003665,132.20160659961402,132.20162250008434,0.5663424733645218,132.2095485003665,132.7708141002804,132.76002900023013,,,,,,,,,,,,,135.76112409960479,1.1133808717502927,135.76826579961926,136.87699120026082,136.86888070032,,,,,,,,,,,,,,,,,,,,,,,132.76004960015416,132.7708141002804,132.7708141002804,132.7708141002804,135.76826579961926,135.76826579961926,135.76826579961926,135.76070840004832,left,0,133.66790209989995,0.103935900144279,,,,,,,,,,,,,,,,,,,101,1,1,False,False,False,False,2025-02-04_10h32.07.219,inversion_effect,2024.1.0,None,2025-02-04 10h32.27.121280 -0800,
stimuli/inverted_faces/faces_stimuli_UpShort.csv,0,0.5,0.5,3,1,0.41,stimuli/inverted_faces/M127.png,stimuli/inverted_faces/M127morph.png,stimuli/inverted_faces/M127.png,2,faces,short,upright,1,0,,,,,,,,,,,,,0,0,0,0,0,15,15,20,,,,,136.87699120026082,,,,,,,,,,,,136.8692079000175,136.87699120026082,136.87699120026082,136.86949529964477,136.86951010022312,upright,136.87699120026082,137.36852740030736,137.36088590044528,137.3609090000391,0.552057306724774,137.36852740030736,137.9211446000263,137.91064369957894,,,,,,,,,,,,,140.91206089966,1.0931774159304057,140.91904450021684,142.0110710998997,142.0029648002237,,,,,,,,,,,,,,,,,,,,,,,137.91066179983318,137.9211446000263,137.9211446000263,137.9211446000263,140.91904450021684,140.91904450021684,140.91904450021684,140.9116187999025,right,0,138.70870890002698,0.11070420034229755,,,,,,,,,,,,,,,,,,,101,1,1,False,False,False,False,2025-02-04_10h32.07.219,inversion_effect,2024.1.0,None,2025-02-04 10h32.27.121280 -0800,
stimuli/inverted_faces/faces_stimuli_UpShort.csv,0,0.5,0.5,3,1,0.41,stimuli/inverted_faces/F9.png,stimuli/inverted_faces/F9morph.png,stimuli/inverted_faces/F9.png,2,faces,short,upright,1,0,,,,,,,,,,,,,0,0,0,0,0,16,16,16,,,,,142.0110710998997,,,,,,,,,,,,142.00326959975064,142.0110710998997,142.0110710998997,142.0035469001159,142.00356130022556,upright,142.0110710998997,142.50283390004188,142.49498169962317,142.49500610027462,0.5257560114853866,142.50283390004188,143.0228779995814,143.01154839992523,,,,,,,,,,,,,146.0127696003765,1.2864479628110648,146.0197869995609,147.30599560029805,147.29573990032077,,,,,,,,,,,,,,,,,,,,,,,143.01156780030578,143.0228779995814,143.0228779995814,143.0228779995814,146.0197869995609,146.0197869995609,146.0197869995609,146.01233199983835,right,0,143.8437186004594,0.12794959917664528,,,,,,,,,,,,,,,,,,,101,1,1,False,False,False,False,2025-02-04_10h32.07.219,inversion_effect,2024.1.0,None,2025-02-04 10h32.27.121280 -0800,
stimuli/inverted_faces/faces_stimuli_UpShort.csv,0,0.5,0.5,3,1,0.41,stimuli/inverted_faces/F21.png,stimuli/inverted_faces/F21morph.png,stimuli/inverted_faces/F21.png,2,faces,short,upright,1,0,,,,,,,,,,,,,0,0,0,0,0,17,17,15,,,,,147.30599560029805,,,,,,,,,,,,147.29621259961277,147.30599560029805,147.30599560029805,147.29663459956646,147.29665329959244,upright,147.30599560029805,147.80357339978218,147.79595430009067,147.79598399996758,0.5093242184566228,147.80357339978218,148.30774530023336,148.29580929968506,,,,,,,,,,,,,151.2966334996745,1.002419531487828,151.3039816999808,152.30470270011574,152.29629470035434,,,,,,,,,,,,,,,,,,,,,,,148.2958378000185,148.30774530023336,148.30774530023336,148.30774530023336,151.3039816999808,151.3039816999808,151.3039816999808,151.29628510028124,right,0,149.38769809994847,0.14335750043392181,,,,,,,,,,,,,,,,,,,101,1,1,False,False,False,False,2025-02-04_10h32.07.219,inversion_effect,2024.1.0,None,2025-02-04 10h32.27.121280 -0800,
stimuli/inverted_faces/faces_stimuli_UpShort.csv,0,0.5,0.5,3,1,0.41,stimuli/inverted_faces/M28.png,stimuli/inverted_faces/M28morph.png,stimuli/inverted_faces/M28.png,2,faces,short,upright,1,0,,,,,,,,,,,,,0,0,0,0,0,18,18,26,,,,,152.30470270011574,,,,,,,,,,,,152.29668769985437,152.30470270011574,152.30470270011574,152.29704810027033,152.29706420004368,upright,152.30470270011574,152.79588370025158,152.78842039965093,152.78844629973173,0.5517537305594632,152.79588370025158,153.35012739989907,153.3381334003061,,,,,,,,,,,,,156.3394513996318,1.1815678843119157,156.34639570023865,157.52163679990917,157.5137595999986,,,,,,,,,,,,,,,,,,,,,,,153.3381564002484,153.35012739989907,153.35012739989907,153.35012739989907,156.34639570023865,156.34639570023865,156.34639570023865,156.33895760029554,left,0,154.51568679977208,0.15188590064644814,,,,,,,,,,,,,,,,,,,101,1,1,False,False,False,False,2025-02-04_10h32.07.219,inversion_effect,2024.1.0,None,2025-02-04 10h32.27.121280 -0800,
stimuli/inverted_faces/faces_stimuli_UpShort.csv,0,0.5,0.5,3,1,0.41,stimuli/inverted_faces/F10.png,stimuli/inverted_faces/F10.png,stimuli/inverted_faces/F10morph.png,1,faces,short,upright,1,0,,,,,,,,,,,,,0,0,0,0,0,19,19,0,,,,,157.52163679990917,,,,,,,,,,,,157.51413870044053,157.52163679990917,157.52163679990917,157.5145068001002,157.51452490035444,upright,157.52163679990917,158.01348139997572,158.0058180000633,158.0058455998078,0.5968695298907594,158.01348139997572,158.60613450035453,158.59735010005534,,,,,,,,,,,,,161.59010390006006,1.278466023438289,161.5971518997103,162.8749749995768,162.86477200035006,,,,,,,,,,,,,,,,,,,,,,,158.5973746003583,158.60613450035453,158.60613450035453,158.60613450035453,161.5971518997103,161.5971518997103,161.5971518997103,161.5896523995325,left,0,159.38788050040603,0.11185320001095533,,,,,,,,,,,,,,,,,,,101,1,1,False,False,False,False,2025-02-04_10h32.07.219,inversion_effect,2024.1.0,None,2025-02-04 10h32.27.121280 -0800,
stimuli/inverted_faces/faces_stimuli_UpShort.csv,0,0.5,0.5,3,1,0.41,stimuli/inverted_faces/M122.png,stimuli/inverted_faces/M122.png,stimuli/inverted_faces/M122morph.png,1,faces,short,upright,1,0,,,,,,,,,,,,,0,0,0,0,0,20,20,8,,,,,162.8749749995768,,,,,,,,,,,,162.86530349962413,162.8749749995768,162.8749749995768,162.86576190032065,162.86578109953552,upright,162.8749749995768,163.3724167002365,163.36491939984262,163.36494820006192,0.669228850118762,163.3724167002365,164.04240099992603,164.031395399943,,,,,,,,,,,,,167.03290720004588,1.0298269125487252,167.03982280008495,168.06757559999824,168.0577149996534,,,,,,,,,,,,,,,,,,,,,,,164.03141830023378,164.04240099992603,164.04240099992603,164.04240099992603,167.03982280008495,167.03982280008495,167.03982280008495,167.0323644001037,left,0,164.69916290044785,0.14397139940410852,,,,,,,,,,,,,,,,,,,101,1,1,False,False,False,False,2025-02-04_10h32.07.219,inversion_effect,2024.1.0,None,2025-02-04 10h32.27.121280 -0800,
stimuli/inverted_faces/faces_stimuli_UpShort.csv,0,0.5,0.5,3,1,0.41,stimuli/inverted_faces/M126.png,stimuli/inverted_faces/M126.png,stimuli/inverted_faces/M126morph.png,1,faces,short,upright,1,0,,,,,,,,,,,,,0,0,0,0,0,21,21,9,,,,,168.06757559999824,,,,,,,,,,,,168.05819190014154,168.06757559999824,168.06757559999824,168.05869979970157,168.05872850026935,upright,168.06757559999824,168.56500879954547,168.5576151004061,168.55765660014004,0.6395249483486791,168.56500879954547,169.20195689983666,169.19080279953778,,,,,,,,,,,,,172.19205449987203,1.2036895899830091,172.1988890999928,173.40152749978006,173.39162879996002,,,,,,,,,,,,,,,,,,,,,,,169.19083280023187,169.20195689983666,169.20195689983666,169.20195689983666,172.1988890999928,172.1988890999928,172.1988890999928,172.19152969960123,left,0,169.7556520998478,0.13599990028887987,,,,,,,,,,,,,,,,,,,101,1,1,False,False,False,False,2025-02-04_10h32.07.219,inversion_effect,2024.1.0,None,2025-02-04 10h32.27.121280 -0800,
stimuli/inverted_faces/faces_stimuli_UpShort.csv,0,0.5,0.5,3,1,0.41,stimuli/inverted_faces/M32.png,stimuli/inverted_faces/M32.png,stimuli/inverted_faces/M32morph.png,1,faces,short,upright,1,0,,,,,,,,,,,,,0,0,0,0,0,22,22,12,,,,,173.40152749978006,,,,,,,,,,,,173.39208700042218,173.40152749978006,173.40152749978006,173.39263250026852,173.39266030024737,upright,173.40152749978006,173.8992510996759,173.89185670018196,173.89189630001783,0.6638382360268285,173.8992510996759,174.5615744004026,174.54990489967167,,,,,,,,,,,,,177.55128169991076,1.0187122560960873,177.55812819954008,178.57657629996538,178.56700900010765,,,,,,,,,,,,,,,,,,,,,,,174.54993660002947,174.5615744004026,174.5615744004026,174.5615744004026,177.55812819954008,177.55812819954008,177.55812819954008,177.55071379989386,left,0,175.27558939997107,0.11163709964603186,,,,,,,,,,,,,,,,,,,101,1,1,False,False,False,False,2025-02-04_10h32.07.219,inversion_effect,2024.1.0,None,2025-02-04 10h32.27.121280 -0800,
stimuli/inverted_faces/faces_stimuli_UpShort.csv,0,0.5,0.5,3,1,0.41,stimuli/inverted_faces/F13.png,stimuli/inverted_faces/F13.png,stimuli/inverted_faces/F13morph.png,1,faces,short,upright,1,0,,,,,,,,,,,,,0,0,0,0,0,23,23,3,,,,,178.57657629996538,,,,,,,,,,,,178.56738500017673,178.57657629996538,178.57657629996538,178.5677584996447,178.56777790002525,upright,178.57657629996538,179.07502999994904,179.0675307996571,179.06756149977446,0.6364441401711947,179.07502999994904,179.71227409970015,179.70040540024638,,,,,,,,,,,,,182.70184990018606,1.1224824639892002,182.70873439963907,183.82732949964702,183.81808310002089,,,,,,,,,,,,,,,,,,,,,,,179.70042940042913,179.71227409970015,179.71227409970015,179.71227409970015,182.70873439963907,182.70873439963907,182.70873439963907,182.70126289967448,left,0,180.2437110999599,0.12798810005187988,,,,,,,,,,,,,,,,,,,101,1,1,False,False,False,False,2025-02-04_10h32.07.219,inversion_effect,2024.1.0,None,2025-02-04 10h32.27.121280 -0800,
stimuli/inverted_faces/faces_stimuli_UpShort.csv,0,0.5,0.5,3,1,0.41,stimuli/inverted_faces/M119.png,stimuli/inverted_faces/M119morph.png,stimuli/inverted_faces/M119.png,2,faces,short,upright,1,0,,,,,,,,,,,,,0,0,0,0,0,24,24,17,,,,,183.82732949964702,,,,,,,,,,,,183.81855040043592,183.82732949964702,183.82732949964702,183.8190551996231,183.81908170040697,upright,183.82732949964702,184.3256804002449,184.3183460002765,184.31837460026145,0.5540966533329169,184.3256804002449,184.87917419988662,184.8682337999344,,,,,,,,,,,,,187.86933439970016,1.2330399260963198,187.87605750001967,189.10319670010358,189.09363279957324,,,,,,,,,,,,,,,,,,,,,,,184.86826379969716,184.87917419988662,184.87917419988662,184.87917419988662,187.87605750001967,187.87605750001967,187.87605750001967,187.8688088003546,left,0,185.4831456001848,0.12785749975591898,,,,,,,,,,,,,,,,,,,101,1,1,False,False,False,False,2025-02-04_10h32.07.219,inversion_effect,2024.1.0,None,2025-02-04 10h32.27.121280 -0800,
stimuli/inverted_faces/faces_stimuli_UpShort.csv,0,0.5,0.5,3,1,0.41,stimuli/inverted_faces/M25.png,stimuli/inverted_faces/M25morph.png,stimuli/inverted_faces/M25.png,2,faces,short,upright,1,0,,,,,,,,,,,,,0,0,0,0,0,25,25,25,,,,,189.10319670010358,,,,,,,,,,,,189.09398640040308,189.10319670010358,189.10319670010358,189.09438070002943,189.09439830016345,upright,189.10319670010358,189.60150580015033,189.59401270002127,189.5940400995314,0.5091918022180644,189.60150580015033,190.10446489974856,190.09379110019654,,,,,,,,,,,,,193.09512820001692,1.1143901206417408,193.10207740031183,194.21181569993496,194.2025763001293,,,,,,,,,,,,,,,,,,,,,,,190.09382290020585,190.10446489974856,190.10446489974856,190.10446489974856,193.10207740031183,193.10207740031183,193.10207740031183,193.09463439974934,right,0,190.90721630025655,0.12825119961053133,,,,,,,,,,,,,,,,,,,101,1,1,False,False,False,False,2025-02-04_10h32.07.219,inversion_effect,2024.1.0,None,2025-02-04 10h32.27.121280 -0800,
stimuli/inverted_faces/faces_stimuli_UpShort.csv,0,0.5,0.5,3,1,0.41,stimuli/inverted_faces/M121.png,stimuli/inverted_faces/M121.png,stimuli/inverted_faces/M121morph.png,1,faces,short,upright,1,0,,,,,,,,,,,,,0,0,0,0,0,26,26,7,,,,,194.21181569993496,,,,,,,,,,,,194.20300150010735,194.21181569993496,194.21181569993496,194.2033820003271,194.20340059977025,upright,194.21181569993496,194.71058959979564,194.70291990041733,194.70295379962772,0.6366942058860459,194.71058959979564,195.34742330014706,195.33638020046055,,,,,,,,,,,,,198.3375613000244,1.1566587549387455,198.34438129980117,199.49686750024557,199.48689160030335,,,,,,,,,,,,,,,,,,,,,,,195.33641070034355,195.34742330014706,195.34742330014706,195.34742330014706,198.34438129980117,198.34438129980117,198.34438129980117,198.33703910000622,left,0,195.8591635003686,0.1280056992545724,,,,,,,,,,,,,,,,,,,101,1,1,False,False,False,False,2025-02-04_10h32.07.219,inversion_effect,2024.1.0,None,2025-02-04 10h32.27.121280 -0800,
stimuli/inverted_faces/faces_stimuli_UpShort.csv,0,0.5,0.5,3,1,0.41,stimuli/inverted_faces/M22.png,stimuli/inverted_faces/M22morph.png,stimuli/inverted_faces/M22.png,2,faces,short,upright,1,0,,,,,,,,,,,,,0,0,0,0,0,27,27,24,,,,,199.49686750024557,,,,,,,,,,,,199.48737149965018,199.49686750024557,199.49686750024557,199.48785270005465,199.48787439987063,upright,199.49686750024557,199.99469119962305,199.98724559973925,199.98727469984442,0.549939620506951,199.99469119962305,200.54104959964752,200.52861929964274,,,,,,,,,,,,,203.53001820016652,1.0319441731015497,203.5367943001911,204.59105310030282,204.55428070016205,,,,,,,,,,,,,,,,,,,,,,,200.52864789962769,200.54104959964752,200.54104959964752,200.54104959964752,203.5367943001911,203.5367943001911,203.5367943001911,203.5294556003064,right,0,201.1553416000679,0.1536523001268506,,,,,,,,,,,,,,,,,,,101,1,1,False,False,False,False,2025-02-04_10h32.07.219,inversion_effect,2024.1.0,None,2025-02-04 10h32.27.121280 -0800,
stimuli/inverted_faces/faces_stimuli_InvShort.csv,0,0.5,0.5,3,1,0.41,stimuli/inverted_faces/F18.png,stimuli/inverted_faces/F18morph.png,stimuli/inverted_faces/F18.png,2,faces,short,inverted,0,1,,,,,,,,,,,,,0,1,1,1,,,,,0,0,0,18,206.57977619953454,,,,,,,,,,,,206.57560169976205,206.57977619953454,206.57977619953454,206.57587840035558,,inverted,,,,207.06326180044562,0.5712569178757936,207.07063919957727,207.63987720012665,207.6294866995886,,,,,,,,,,,,,210.6306955004111,1.2385339033979552,210.63784850016236,211.87137250043452,211.8633113997057,206.5758881000802,206.57977619953454,207.07063919957727,207.06323099974543,,,,,,,,,,,,,,,,,,,,,,,,,,,,,,,204.58874739985913,204.59105310030282,206.5624131001532,207.62950660008937,207.63987720012665,207.63987720012665,207.63987720012665,210.63784850016236,210.63784850016236,210.63784850016236,210.63016580045223,right,0,208.4270975003019,0.12068230006843805,,,,101,1,1,False,False,False,False,2025-02-04_10h32.07.219,inversion_effect,2024.1.0,None,2025-02-04 10h32.27.121280 -0800,
stimuli/inverted_faces/faces_stimuli_InvShort.csv,0,0.5,0.5,3,1,0.41,stimuli/inverted_faces/M25.png,stimuli/inverted_faces/M25.png,stimuli/inverted_faces/M25morph.png,1,faces,short,inverted,0,1,,,,,,,,,,,,,0,1,1,1,,,,,0,1,1,10,211.87137250043452,,,,,,,,,,,,211.86360360030085,211.87137250043452,211.87137250043452,211.86385730002075,,inverted,,,,212.35554799996316,0.6245396761399695,212.36311560031027,212.98009669966996,212.9716600002721,,,,,,,,,,,,,215.96516580041498,1.272734515656384,215.97187469992787,217.23898379970342,217.2309033004567,211.86386930011213,211.87137250043452,212.36311560031027,212.35552029963583,,,,,,,,,,,,,,,,,,,,,,,,,,,,,,,,,,212.97167450003326,212.98009669966996,212.98009669966996,212.98009669966996,215.97187469992787,215.97187469992787,215.97187469992787,215.96466809976846,left,0,213.59528299979866,0.12028240039944649,,,,101,1,1,False,False,False,False,2025-02-04_10h32.07.219,inversion_effect,2024.1.0,None,2025-02-04 10h32.27.121280 -0800,
stimuli/inverted_faces/faces_stimuli_InvShort.csv,0,0.5,0.5,3,1,0.41,stimuli/inverted_faces/F16.png,stimuli/inverted_faces/F16.png,stimuli/inverted_faces/F16morph.png,1,faces,short,inverted,0,1,,,,,,,,,,,,,0,1,1,1,,,,,0,2,2,0,217.23898379970342,,,,,,,,,,,,217.231205499731,217.23898379970342,217.23898379970342,217.23152580019087,,inverted,,,,217.72273739986122,0.5206375020271868,217.73055620025843,218.2479945998639,218.23940979968756,,,,,,,,,,,,,221.23170769959688,1.1653350728275162,221.23935839999467,222.3979457002133,222.38989110011607,217.23154130019248,217.23898379970342,217.73055620025843,217.72271540015936,,,,,,,,,,,,,,,,,,,,,,,,,,,,,,,,,,218.23943139985204,218.2479945998639,218.2479945998639,218.2479945998639,221.23935839999467,221.23935839999467,221.23935839999467,221.23154219985008,left,0,218.98785699997097,0.1438840003684163,,,,101,1,1,False,False,False,False,2025-02-04_10h32.07.219,inversion_effect,2024.1.0,None,2025-02-04 10h32.27.121280 -0800,
stimuli/inverted_faces/faces_stimuli_InvShort.csv,0,0.5,0.5,3,1,0.41,stimuli/inverted_faces/F12.png,stimuli/inverted_faces/F12morph.png,stimuli/inverted_faces/F12.png,2,faces,short,inverted,0,1,,,,,,,,,,,,,0,1,1,1,,,,,0,3,3,15,222.3979457002133,,,,,,,,,,,,222.39018900040537,222.3979457002133,222.3979457002133,222.3904595002532,,inverted,,,,222.88188030011952,0.5571558271836775,222.88967209961265,223.44034130033106,223.4319435004145,,,,,,,,,,,,,226.42445390019566,1.0394333777290075,226.43199670035392,227.465432099998,227.4574825996533,222.39047299977392,222.3979457002133,222.88967209961265,222.88185819983482,,,,,,,,,,,,,,,,,,,,,,,,,,,,,,,,,,223.43196580000222,223.44034130033106,223.44034130033106,223.44034130033106,226.43199670035392,226.43199670035392,226.43199670035392,226.42410330008715,right,0,224.41102430038154,0.1449877992272377,,,,101,1,1,False,False,False,False,2025-02-04_10h32.07.219,inversion_effect,2024.1.0,None,2025-02-04 10h32.27.121280 -0800,
stimuli/inverted_faces/faces_stimuli_InvShort.csv,0,0.5,0.5,3,1,0.41,stimuli/inverted_faces/F15.png,stimuli/inverted_faces/F15morph.png,stimuli/inverted_faces/F15.png,2,faces,short,inverted,0,1,,,,,,,,,,,,,0,1,1,1,,,,,0,4,4,17,227.465432099998,,,,,,,,,,,,227.45778529997915,227.465432099998,227.465432099998,227.4580897996202,,inverted,,,,227.9495500996709,0.5705067265886707,227.95709589961916,228.52596380002797,228.51599759981036,,,,,,,,,,,,,231.51754629984498,1.1104355532258923,231.52426019962877,232.6328731002286,232.62488489970565,227.45810490008444,227.465432099998,227.95709589961916,227.94952640030533,,,,,,,,,,,,,,,,,,,,,,,,,,,,,,,,,,228.51602500025183,228.52596380002797,228.52596380002797,228.52596380002797,231.52426019962877,231.52426019962877,231.52426019962877,231.51697380002588,right,0,229.41920869983733,0.16024699993431568,,,,101,1,1,False,False,False,False,2025-02-04_10h32.07.219,inversion_effect,2024.1.0,None,2025-02-04 10h32.27.121280 -0800,
stimuli/inverted_faces/faces_stimuli_InvShort.csv,0,0.5,0.5,3,1,0.41,stimuli/inverted_faces/M126.png,stimuli/inverted_faces/M126morph.png,stimuli/inverted_faces/M126.png,2,faces,short,inverted,0,1,,,,,,,,,,,,,0,1,1,1,,,,,0,5,5,22,232.6328731002286,,,,,,,,,,,,232.62531909998506,232.6328731002286,232.6328731002286,232.62570319976658,,inverted,,,,233.11710759997368,0.6702978779894431,233.1244881004095,233.7918606000021,233.78346200007945,,,,,,,,,,,,,236.77652299962938,1.0158456256575077,236.78345530014485,237.7920097000897,237.78418449964374,232.62572189979255,232.6328731002286,233.1244881004095,233.11707060039043,,,,,,,,,,,,,,,,,,,,,,,,,,,,,,,,,,233.78349130041897,233.7918606000021,233.7918606000021,233.7918606000021,236.78345530014485,236.78345530014485,236.78345530014485,236.77596709970385,right,0,234.5480257999152,0.14424450043588877,,,,101,1,1,False,False,False,False,2025-02-04_10h32.07.219,inversion_effect,2024.1.0,None,2025-02-04 10h32.27.121280 -0800,
stimuli/inverted_faces/faces_stimuli_InvShort.csv,0,0.5,0.5,3,1,0.41,stimuli/inverted_faces/M119.png,stimuli/inverted_faces/M119.png,stimuli/inverted_faces/M119morph.png,1,faces,short,inverted,0,1,,,,,,,,,,,,,0,1,1,1,,,,,0,6,6,3,237.7920097000897,,,,,,,,,,,,237.78465500008315,237.7920097000897,237.7920097000897,237.78507000021636,,inverted,,,,238.2760901004076,0.5112314321522797,238.28375869989395,238.79386309999973,238.78452469967306,,,,,,,,,,,,,241.78558299969882,1.0564208024392392,241.79247920028865,242.842766799964,242.83486209996045,237.78508889954537,237.7920097000897,238.28375869989395,238.27606029994786,,,,,,,,,,,,,,,,,,,,,,,,,,,,,,,,,,238.78455560002476,238.79386309999973,238.79386309999973,238.79386309999973,241.79247920028865,241.79247920028865,241.79247920028865,241.78507359977812,left,0,239.72383099980652,0.13603430055081844,,,,101,1,1,False,False,False,False,2025-02-04_10h32.07.219,inversion_effect,2024.1.0,None,2025-02-04 10h32.27.121280 -0800,
stimuli/inverted_faces/faces_stimuli_InvShort.csv,0,0.5,0.5,3,1,0.41,stimuli/inverted_faces/F21.png,stimuli/inverted_faces/F21.png,stimuli/inverted_faces/F21morph.png,1,faces,short,inverted,0,1,,,,,,,,,,,,,0,1,1,1,,,,,0,7,7,1,242.842766799964,,,,,,,,,,,,242.83526279963553,242.842766799964,242.842766799964,242.83563319966197,,inverted,,,,243.3269830001518,0.5233106193276029,243.33438980020583,243.85125629976392,243.84321509953588,,,,,,,,,,,,,246.83622630033642,1.248142226655723,246.8432064000517,248.08516380004585,248.0772249000147,242.83565079979599,242.842766799964,243.33438980020583,243.32695509959012,,,,,,,,,,,,,,,,,,,,,,,,,,,,,,,,,,243.8432355998084,243.85125629976392,243.85125629976392,243.85125629976392,246.8432064000517,246.8432064000517,246.8432064000517,246.8357544997707,right,0,244.72321600001305,0.1360953999683261,,,,101,1,1,False,False,False,False,2025-02-04_10h32.07.219,inversion_effect,2024.1.0,None,2025-02-04 10h32.27.121280 -0800,
stimuli/inverted_faces/faces_stimuli_InvShort.csv,0,0.5,0.5,3,1,0.41,stimuli/inverted_faces/M127.png,stimuli/inverted_faces/M127morph.png,stimuli/inverted_faces/M127.png,2,faces,short,inverted,0,1,,,,,,,,,,,,,0,1,1,1,,,,,0,8,8,23,248.08516380004585,,,,,,,,,,,,248.07762719970196,248.08516380004585,248.08516380004585,248.07801199983805,,inverted,,,,248.56974560022354,0.6724441996677056,248.5767740998417,249.2459650998935,249.2359482003376,,,,,,,,,,,,,252.2369328001514,1.1795657036176626,252.24402270000428,253.41947830002755,253.41153580043465,248.0780284004286,248.08516380004585,248.5767740998417,248.5697032995522,,,,,,,,,,,,,,,,,,,,,,,,,,,,,,,,,,249.2359758997336,249.2459650998935,249.2459650998935,249.2459650998935,252.24402270000428,252.24402270000428,252.24402270000428,252.23655910044909,right,0,250.05278689973056,0.15058190003037453,,,,101,1,1,False,False,False,False,2025-02-04_10h32.07.219,inversion_effect,2024.1.0,None,2025-02-04 10h32.27.121280 -0800,
stimuli/inverted_faces/faces_stimuli_InvShort.csv,0,0.5,0.5,3,1,0.41,stimuli/inverted_faces/M122.png,stimuli/inverted_faces/M122morph.png,stimuli/inverted_faces/M122.png,2,faces,short,inverted,0,1,,,,,,,,,,,,,0,1,1,1,,,,,0,9,9,20,253.41947830002755,,,,,,,,,,,,253.4119183998555,253.41947830002755,253.41947830002755,253.41236959956586,,inverted,,,,253.90295070037246,0.6719865580076196,253.91098759975284,254.57788170035928,254.5697688004002,,,,,,,,,,,,,257.5629150001332,1.2662774420228804,257.56984759960324,258.82839430030435,258.8205612003803,253.41239340044558,253.41947830002755,253.91098759975284,253.90293889958411,,,,,,,,,,,,,,,,,,,,,,,,,,,,,,,,,,254.56978789996356,254.57788170035928,254.57788170035928,254.57788170035928,257.56984759960324,257.56984759960324,257.56984759960324,257.5624000998214,right,0,255.58733559958637,0.11995160020887852,,,,101,1,1,False,False,False,False,2025-02-04_10h32.07.219,inversion_effect,2024.1.0,None,2025-02-04 10h32.27.121280 -0800,
stimuli/inverted_faces/faces_stimuli_InvShort.csv,0,0.5,0.5,3,1,0.41,stimuli/inverted_faces/M131.png,stimuli/inverted_faces/M131.png,stimuli/inverted_faces/M131morph.png,1,faces,short,inverted,0,1,,,,,,,,,,,,,0,1,1,1,,,,,0,10,10,8,258.82839430030435,,,,,,,,,,,,258.82103190012276,258.82839430030435,258.82839430030435,258.82141999993473,,inverted,,,,259.3125978000462,0.6037937086010672,259.32016060035676,259.9203832997009,259.9122003996745,,,,,,,,,,,,,262.9053415004164,1.0812798514867445,262.9123350000009,263.98763919994235,263.979714400135,258.8214373001829,258.82839430030435,259.32016060035676,259.3125686002895,,,,,,,,,,,,,,,,,,,,,,,,,,,,,,,,,,259.912219800055,259.9203832997009,259.9203832997009,259.9203832997009,262.9123350000009,262.9123350000009,262.9123350000009,262.90479509998113,left,0,261.0033253999427,0.12798250000923872,,,,101,1,1,False,False,False,False,2025-02-04_10h32.07.219,inversion_effect,2024.1.0,None,2025-02-04 10h32.27.121280 -0800,
stimuli/inverted_faces/faces_stimuli_InvShort.csv,0,0.5,0.5,3,1,0.41,stimuli/inverted_faces/M128.png,stimuli/inverted_faces/M128.png,stimuli/inverted_faces/M128morph.png,1,faces,short,inverted,0,1,,,,,,,,,,,,,0,1,1,1,,,,,0,11,11,6,263.98763919994235,,,,,,,,,,,,263.98005949985236,263.98763919994235,263.98763919994235,263.9805017998442,,inverted,,,,264.4714481998235,0.5553458401931191,264.4791537001729,265.03085369989276,265.02158320043236,,,,,,,,,,,,,268.01426710002124,1.1996796960022462,268.0213957000524,269.2133678002283,269.2052662996575,263.9805221995339,263.98763919994235,264.4791537001729,264.47142030019313,,,,,,,,,,,,,,,,,,,,,,,,,,,,,,,,,,265.02160959970206,265.03085369989276,265.03085369989276,265.03085369989276,268.0213957000524,268.0213957000524,268.0213957000524,268.0138093996793,right,0,265.78003340028226,0.12693060003221035,,,,101,1,1,False,False,False,False,2025-02-04_10h32.07.219,inversion_effect,2024.1.0,None,2025-02-04 10h32.27.121280 -0800,
stimuli/inverted_faces/faces_stimuli_InvShort.csv,0,0.5,0.5,3,1,0.41,stimuli/inverted_faces/F10.png,stimuli/inverted_faces/F10.png,stimuli/inverted_faces/F10morph.png,1,faces,short,inverted,0,1,,,,,,,,,,,,,0,1,1,1,,,,,0,12,12,13,269.2133678002283,,,,,,,,,,,,269.20564659964293,269.2133678002283,269.2133678002283,269.2059848001227,,inverted,,,,269.69791520014405,0.5968544457066265,269.705072700046,270.2972117997706,270.2888777004555,,,,,,,,,,,,,273.28178420010954,1.112989497314626,273.2888535996899,274.3975708996877,274.38971929997206,269.20600140001625,269.2133678002283,269.705072700046,269.6978853000328,,,,,,,,,,,,,,,,,,,,,,,,,,,,,,,,,,270.2889010999352,270.2972117997706,270.2972117997706,270.2972117997706,273.2888535996899,273.2888535996899,273.2888535996899,273.2812558999285,left,0,271.03532319981605,0.12001970037817955,,,,101,1,1,False,False,False,False,2025-02-04_10h32.07.219,inversion_effect,2024.1.0,None,2025-02-04 10h32.27.121280 -0800,
stimuli/inverted_faces/faces_stimuli_InvShort.csv,0,0.5,0.5,3,1,0.41,stimuli/inverted_faces/M129.png,stimuli/inverted_faces/M129.png,stimuli/inverted_faces/M129morph.png,1,faces,short,inverted,0,1,,,,,,,,,,,,,0,1,1,1,,,,,0,13,13,7,274.3975708996877,,,,,,,,,,,,274.3900923002511,274.3975708996877,274.3975708996877,274.3905594004318,,inverted,,,,274.88154899980873,0.5975866774640177,274.8890797002241,275.48106850031763,275.4729746002704,,,,,,,,,,,,,278.4656411996111,1.219148637179893,278.47290890011936,279.68990790005773,279.6818920997903,274.3905840003863,274.3975708996877,274.8890797002241,274.881520899944,,,,,,,,,,,,,,,,,,,,,,,,,,,,,,,,,,275.472996099852,275.48106850031763,275.48106850031763,275.48106850031763,278.47290890011936,278.47290890011936,278.47290890011936,278.46526230033487,left,0,276.3959865998477,0.1195882000029087,,,,101,1,1,False,False,False,False,2025-02-04_10h32.07.219,inversion_effect,2024.1.0,None,2025-02-04 10h32.27.121280 -0800,
stimuli/inverted_faces/faces_stimuli_InvShort.csv,0,0.5,0.5,3,1,0.41,stimuli/inverted_faces/M123.png,stimuli/inverted_faces/M123.png,stimuli/inverted_faces/M123morph.png,1,faces,short,inverted,0,1,,,,,,,,,,,,,0,1,1,1,,,,,0,14,14,5,279.68990790005773,,,,,,,,,,,,279.6822990998626,279.68990790005773,279.68990790005773,279.68266090005636,,inverted,,,,280.17398090008646,0.5502438255127534,280.1814972003922,280.7249245001003,280.7156034996733,,,,,,,,,,,,,283.7165916003287,1.2864922236072829,283.72379059996456,285.00749099999666,284.9997554998845,279.68267679959536,279.68990790005773,280.1814972003922,280.1739459000528,,,,,,,,,,,,,,,,,,,,,,,,,,,,,,,,,,280.7156277997419,280.7249245001003,280.7249245001003,280.7249245001003,283.72379059996456,283.72379059996456,283.72379059996456,283.71617699973285,left,0,281.48358410038054,0.1437877994030714,,,,101,1,1,False,False,False,False,2025-02-04_10h32.07.219,inversion_effect,2024.1.0,None,2025-02-04 10h32.27.121280 -0800,
stimuli/inverted_faces/faces_stimuli_InvShort.csv,0,0.5,0.5,3,1,0.41,stimuli/inverted_faces/M31.png,stimuli/inverted_faces/M31.png,stimuli/inverted_faces/M31morph.png,1,faces,short,inverted,0,1,,,,,,,,,,,,,0,1,1,1,,,,,0,15,15,11,285.00749099999666,,,,,,,,,,,,285.0002135001123,285.00749099999666,285.00749099999666,285.0006638998166,,inverted,,,,285.491710299626,0.5300814238366066,285.4992528995499,286.02574510034174,286.01651140023023,,,,,,,,,,,,,289.0092732999474,1.0966148099723005,289.0162915000692,290.1085187997669,290.10056569986045,285.00068639963865,285.00749099999666,285.4992528995499,285.49168200045824,,,,,,,,,,,,,,,,,,,,,,,,,,,,,,,,,,286.0165368998423,286.02574510034174,286.02574510034174,286.02574510034174,289.0162915000692,289.0162915000692,289.0162915000692,289.00877539999783,right,0,286.73977740015835,0.13590610027313232,,,,101,1,1,False,False,False,False,2025-02-04_10h32.07.219,inversion_effect,2024.1.0,None,2025-02-04 10h32.27.121280 -0800,
stimuli/inverted_faces/faces_stimuli_InvShort.csv,0,0.5,0.5,3,1,0.41,stimuli/inverted_faces/F11.png,stimuli/inverted_faces/F11morph.png,stimuli/inverted_faces/F11.png,2,faces,short,inverted,0,1,,,,,,,,,,,,,0,1,1,1,,,,,0,16,16,14,290.1085187997669,,,,,,,,,,,,290.1010210001841,290.1085187997669,290.1085187997669,290.10147699993104,,inverted,,,,290.5924156997353,0.649088448328532,290.5999784003943,291.244095900096,291.2341935997829,,,,,,,,,,,,,294.2355771996081,1.1725964308194412,294.2421059999615,295.40906209964305,295.4010132998228,290.1014981996268,290.1085187997669,290.5999784003943,290.5923851998523,,,,,,,,,,,,,,,,,,,,,,,,,,,,,,,,,,291.23422230035067,291.244095900096,291.244095900096,291.244095900096,294.2421059999615,294.2421059999615,294.2421059999615,294.2348822001368,right,0,292.4273143000901,0.12783799972385168,,,,101,1,1,False,False,False,False,2025-02-04_10h32.07.219,inversion_effect,2024.1.0,None,2025-02-04 10h32.27.121280 -0800,
stimuli/inverted_faces/faces_stimuli_InvShort.csv,0,0.5,0.5,3,1,0.41,stimuli/inverted_faces/F7.png,stimuli/inverted_faces/F7morph.png,stimuli/inverted_faces/F7.png,2,faces,short,inverted,0,1,,,,,,,,,,,,,0,1,1,1,,,,,0,17,17,19,295.40906209964305,,,,,,,,,,,,295.4012936996296,295.40906209964305,295.40906209964305,295.40158000029624,,inverted,,,,295.8930406998843,0.6178054665523788,295.90064570028335,296.5178455999121,296.5093518998474,,,,,,,,,,,,,299.5022644000128,1.017209655536496,299.5094916000962,300.5181606002152,300.5101287001744,295.4015944004059,295.40906209964305,295.90064570028335,295.8930160002783,,,,,,,,,,,,,,,,,,,,,,,,,,,,,,,,,,296.5093681002036,296.5178455999121,296.5178455999121,296.5178455999121,299.5094916000962,299.5094916000962,299.5094916000962,299.5018766000867,left,0,297.6677139000967,0.11153689958155155,,,,101,1,1,False,False,False,False,2025-02-04_10h32.07.219,inversion_effect,2024.1.0,None,2025-02-04 10h32.27.121280 -0800,
stimuli/inverted_faces/faces_stimuli_InvShort.csv,0,0.5,0.5,3,1,0.41,stimuli/inverted_faces/M28.png,stimuli/inverted_faces/M28morph.png,stimuli/inverted_faces/M28.png,2,faces,short,inverted,0,1,,,,,,,,,,,,,0,1,1,1,,,,,0,18,18,26,300.5181606002152,,,,,,,,,,,,300.51047530025244,300.5181606002152,300.5181606002152,300.51079719979316,,inverted,,,,301.0021385997534,0.589472288582591,301.0097872996703,301.5939154997468,301.585192900151,,,,,,,,,,,,,304.5782415997237,1.2247244108612354,304.58522849995643,305.80230579990894,305.794197300449,300.5108123999089,300.5181606002152,301.0097872996703,301.00211349967867,,,,,,,,,,,,,,,,,,,,,,,,,,,,,,,,,,301.5852095000446,301.5939154997468,301.5939154997468,301.5939154997468,304.58522849995643,304.58522849995643,304.58522849995643,304.57787999976426,right,0,302.32381310034543,0.14382819924503565,,,,101,1,1,False,False,False,False,2025-02-04_10h32.07.219,inversion_effect,2024.1.0,None,2025-02-04 10h32.27.121280 -0800,
stimuli/inverted_faces/faces_stimuli_InvShort.csv,0,0.5,0.5,3,1,0.41,stimuli/inverted_faces/M32.png,stimuli/inverted_faces/M32morph.png,stimuli/inverted_faces/M32.png,2,faces,short,inverted,0,1,,,,,,,,,,,,,0,1,1,1,,,,,0,19,19,27,305.80230579990894,,,,,,,,,,,,305.7945713000372,305.80230579990894,305.80230579990894,305.7948922999203,,inverted,,,,306.28617560025305,0.6791468839244865,306.2939274003729,306.9695714004338,306.96110980026424,,,,,,,,,,,,,309.95385779999197,1.1750999270941482,309.96111899986863,311.12800979986787,311.12003920041025,305.79490709956735,305.80230579990894,306.2939274003729,306.2861516000703,,,,,,,,,,,,,,,,,,,,,,,,,,,,,,,,,,306.96113079972565,306.9695714004338,306.9695714004338,306.9695714004338,309.96111899986863,309.96111899986863,309.96111899986863,309.95350719988346,right,0,307.65942350029945,0.15199809987097979,,,,101,1,1,False,False,False,False,2025-02-04_10h32.07.219,inversion_effect,2024.1.0,None,2025-02-04 10h32.27.121280 -0800,
stimuli/inverted_faces/faces_stimuli_InvShort.csv,0,0.5,0.5,3,1,0.41,stimuli/inverted_faces/M125.png,stimuli/inverted_faces/M125morph.png,stimuli/inverted_faces/M125.png,2,faces,short,inverted,0,1,,,,,,,,,,,,,0,1,1,1,,,,,0,20,20,21,311.12800979986787,,,,,,,,,,,,311.1204070998356,311.12800979986787,311.12800979986787,311.120732200332,,inverted,,,,311.6119950003922,0.6660253135294507,311.61967409960926,312.2783615998924,312.2701484002173,,,,,,,,,,,,,315.26273440010846,1.143414009624536,315.2700687004253,316.4120062002912,316.4039660003036,311.1207477003336,311.12800979986787,311.61967409960926,311.61196979973465,,,,,,,,,,,,,,,,,,,,,,,,,,,,,,,,,,312.2701664995402,312.2783615998924,312.2783615998924,312.2783615998924,315.2700687004253,315.2700687004253,315.2700687004253,315.2623012000695,left,0,312.971362600103,0.11199619993567467,,,,101,1,1,False,False,False,False,2025-02-04_10h32.07.219,inversion_effect,2024.1.0,None,2025-02-04 10h32.27.121280 -0800,
stimuli/inverted_faces/faces_stimuli_InvShort.csv,0,0.5,0.5,3,1,0.41,stimuli/inverted_faces/M22.png,stimuli/inverted_faces/M22.png,stimuli/inverted_faces/M22morph.png,1,faces,short,inverted,0,1,,,,,,,,,,,,,0,1,1,1,,,,,0,21,21,9,316.4120062002912,,,,,,,,,,,,316.4042934002355,316.4120062002912,316.4120062002912,316.40460370015353,,inverted,,,,316.8960058996454,0.6821520649832754,316.90365390013903,317.57897309958935,317.5707651004195,,,,,,,,,,,,,320.56389799993485,1.0769625291635083,320.570907600224,321.6462043998763,321.6382798999548,316.40461849980056,316.4120062002912,316.90365390013903,316.8959804000333,,,,,,,,,,,,,,,,,,,,,,,,,,,,,,,,,,317.57078319974244,317.57897309958935,317.57897309958935,317.57897309958935,320.570907600224,320.570907600224,320.570907600224,320.5633782995865,right,0,317.87518940027803,0.14416200015693903,,,,101,1,1,False,False,False,False,2025-02-04_10h32.07.219,inversion_effect,2024.1.0,None,2025-02-04 10h32.27.121280 -0800,
stimuli/inverted_faces/faces_stimuli_InvShort.csv,0,0.5,0.5,3,1,0.41,stimuli/inverted_faces/M21.png,stimuli/inverted_faces/M21morph.png,stimuli/inverted_faces/M21.png,2,faces,short,inverted,0,1,,,,,,,,,,,,,0,1,1,1,,,,,0,22,22,25,321.6462043998763,,,,,,,,,,,,321.6386789996177,321.6462043998763,321.6462043998763,321.639073099941,,inverted,,,,322.13014290016145,0.5038778856569852,322.13779000006616,322.6384937996045,322.63005310017616,,,,,,,,,,,,,325.62313439976424,1.083604906382135,325.62994739972055,326.7051996998489,326.6972305998206,321.6390915000811,321.6462043998763,322.13779000006616,322.13011629972607,,,,,,,,,,,,,,,,,,,,,,,,,,,,,,,,,,322.6300783995539,322.6384937996045,322.6384937996045,322.6384937996045,325.62994739972055,325.62994739972055,325.62994739972055,325.6225734995678,right,0,325.2356553003192,0.1520841997116804,,,,101,1,1,False,False,False,False,2025-02-04_10h32.07.219,inversion_effect,2024.1.0,None,2025-02-04 10h32.27.121280 -0800,
stimuli/inverted_faces/faces_stimuli_InvShort.csv,0,0.5,0.5,3,1,0.41,stimuli/inverted_faces/F9.png,stimuli/inverted_faces/F9.png,stimuli/inverted_faces/F9morph.png,1,faces,short,inverted,0,1,,,,,,,,,,,,,0,1,1,1,,,,,0,23,23,2,326.7051996998489,,,,,,,,,,,,326.697603199631,326.7051996998489,326.7051996998489,326.69794730003923,,inverted,,,,327.1896214000881,0.5693979776893116,327.19707479979843,327.76432470045984,327.75579150021076,,,,,,,,,,,,,330.7489424003288,1.0683985889830352,330.7557180998847,331.8230830999091,331.8151025995612,326.69796369969845,326.7051996998489,327.19707479979843,327.18959120009094,,,,,,,,,,,,,,,,,,,,,,,,,,,,,,,,,,327.75581230036914,327.76432470045984,327.76432470045984,327.76432470045984,330.7557180998847,330.7557180998847,330.7557180998847,330.74840680044144,left,0,328.51513960026205,0.10403709951788187,,,,101,1,1,False,False,False,False,2025-02-04_10h32.07.219,inversion_effect,2024.1.0,None,2025-02-04 10h32.27.121280 -0800,
stimuli/inverted_faces/faces_stimuli_InvShort.csv,0,0.5,0.5,3,1,0.41,stimuli/inverted_faces/M35.png,stimuli/inverted_faces/M35.png,stimuli/inverted_faces/M35morph.png,1,faces,short,inverted,0,1,,,,,,,,,,,,,0,1,1,1,,,,,0,24,24,12,331.8230830999091,,,,,,,,,,,,331.81567019969225,331.8230830999091,331.8230830999091,331.8162519996986,,inverted,,,,332.3068578001112,0.5201390150044635,332.3142579002306,332.83304520044476,332.8234486002475,,,,,,,,,,,,,335.8244706001133,1.1014577563942263,335.8314704997465,336.93171430006623,336.92384750023484,331.81627689953893,331.8230830999091,332.3142579002306,332.3068273002282,,,,,,,,,,,,,,,,,,,,,,,,,,,,,,,,,,332.8234842000529,332.83304520044476,332.83304520044476,332.83304520044476,335.8314704997465,335.8314704997465,335.8314704997465,335.8239748002961,left,0,333.6990684000775,0.10400039982050657,,,,101,1,1,False,False,False,False,2025-02-04_10h32.07.219,inversion_effect,2024.1.0,None,2025-02-04 10h32.27.121280 -0800,
stimuli/inverted_faces/faces_stimuli_InvShort.csv,0,0.5,0.5,3,1,0.41,stimuli/inverted_faces/F13.png,stimuli/inverted_faces/F13morph.png,stimuli/inverted_faces/F13.png,2,faces,short,inverted,0,1,,,,,,,,,,,,,0,1,1,1,,,,,0,25,25,16,336.93171430006623,,,,,,,,,,,,336.9243078995496,336.93171430006623,336.93171430006623,336.9246952002868,,inverted,,,,337.4159845998511,0.55054548349714,337.42345550004393,337.9656768999994,337.9573806002736,,,,,,,,,,,,,340.95026780012995,1.048873886778375,340.95730310026556,341.99924049992114,341.990946800448,336.9247134998441,336.93171430006623,337.42345550004393,337.41595350019634,,,,,,,,,,,,,,,,,,,,,,,,,,,,,,,,,,337.9574060998857,337.9656768999994,337.9656768999994,337.9656768999994,340.95730310026556,340.95730310026556,340.95730310026556,340.94979560002685,right,0,338.49933919962496,0.10466259997338057,,,,101,1,1,False,False,False,False,2025-02-04_10h32.07.219,inversion_effect,2024.1.0,None,2025-02-04 10h32.27.121280 -0800,
stimuli/inverted_faces/faces_stimuli_InvShort.csv,0,0.5,0.5,3,1,0.41,stimuli/inverted_faces/M121.png,stimuli/inverted_faces/M121.png,stimuli/inverted_faces/M121morph.png,1,faces,short,inverted,0,1,,,,,,,,,,,,,0,1,1,1,,,,,0,26,26,4,341.99924049992114,,,,,,,,,,,,341.99111589975655,341.99924049992114,341.99924049992114,341.9913186999038,,inverted,,,,342.483324999921,0.5907485851473183,342.49080790020525,343.0752095002681,343.0666432995349,,,,,,,,,,,,,346.0589936999604,1.2929838467003545,346.06626849994063,347.3583875000477,347.35068859998137,341.99132850021124,341.99924049992114,342.49080790020525,342.48329219967127,,,,,,,,,,,,,,,,,,,,,,,,,,,,,,,,,,343.0666765002534,343.0752095002681,343.0752095002681,343.0752095002681,346.06626849994063,346.06626849994063,346.06626849994063,346.0586962001398,right,0,343.44359819963574,0.13599270023405552,,,,101,1,1,False,False,False,False,2025-02-04_10h32.07.219,inversion_effect,2024.1.0,None,2025-02-04 10h32.27.121280 -0800,
stimuli/inverted_faces/faces_stimuli_InvShort.csv,0,0.5,0.5,3,1,0.41,stimuli/inverted_faces/M130.png,stimuli/inverted_faces/M130morph.png,stimuli/inverted_faces/M130.png,2,faces,short,inverted,0,1,,,,,,,,,,,,,0,1,1,1,,,,,0,27,27,24,347.3583875000477,,,,,,,,,,,,347.35117079969496,347.3583875000477,347.3583875000477,347.35176329966635,,inverted,,,,347.84230769984424,0.5808143251841732,347.84998199995607,348.428205399774,348.4170410996303,,,,,,,,,,,,,351.4185432996601,1.1810055492116853,351.4254716997966,352.65028719976544,352.59290909953415,347.3517920002341,347.3583875000477,347.84998199995607,347.84227760042995,,,,,,,,,,,,,,,,,,,,,,,,,,,,,,,,,,348.4170612003654,348.428205399774,348.428205399774,348.428205399774,351.4254716997966,351.4254716997966,351.4254716997966,351.4179625995457,right,0,349.1552037000656,0.1280137002468109,,,,101,1,1,False,False,False,False,2025-02-04_10h32.07.219,inversion_effect,2024.1.0,None,2025-02-04 10h32.27.121280 -0800,
stimuli/inverted_faces/faces_stimuli_UpLong.csv,0,5.0,0.5,3,1,0.41,stimuli/inverted_faces/M131.png,stimuli/inverted_faces/M131morph.png,stimuli/inverted_faces/M131.png,2,faces,long,upright,1,0,,,,,,,,,,,,,0,2,2,2,0,0,0,23,,,,,354.6141077000648,,,,,,,,,,,,354.6090444996953,354.6141077000648,354.6141077000648,354.6094196001068,354.6094340002164,upright,354.6141077000648,359.6099763996899,359.6025181002915,359.6025473000482,0.5427344031208695,359.6099763996899,360.146208900027,360.1356194000691,,,,,,,,,,,,,363.1366413999349,1.2935897378054602,363.14383350033313,364.43660810030997,364.4281601998955,,,,,,,,,,,,,,,,,,,,,,,360.1356442999095,360.146208900027,360.146208900027,360.146208900027,363.14383350033313,363.14383350033313,363.14383350033313,363.13607679959387,right,0,360.7876754999161,0.12796530034393072,352.6480155996978,352.65028719976544,354.6011731000617,,,,,,,,,,,,,,,,101,1,1,False,False,False,False,2025-02-04_10h32.07.219,inversion_effect,2024.1.0,None,2025-02-04 10h32.27.121280 -0800,
stimuli/inverted_faces/faces_stimuli_UpLong.csv,0,5.0,0.5,3,1,0.41,stimuli/inverted_faces/M22.png,stimuli/inverted_faces/M22morph.png,stimuli/inverted_faces/M22.png,2,faces,long,upright,1,0,,,,,,,,,,,,,0,2,2,2,0,1,1,24,,,,,364.43660810030997,,,,,,,,,,,,364.4286761004478,364.43660810030997,364.43660810030997,364.42918200045824,364.42920510005206,upright,364.43660810030997,369.42820800002664,369.4206731002778,369.4207007996738,0.6294118852113537,369.42820800002664,370.054124600254,370.0455432003364,,,,,,,,,,,,,373.03835859987885,1.0941161322866946,373.0453593004495,374.13721960037947,374.12925169989467,,,,,,,,,,,,,,,,,,,,,,,370.0455678999424,370.054124600254,370.054124600254,370.054124600254,373.0453593004495,373.0453593004495,373.0453593004495,373.03786639962345,right,0,370.6672400003299,0.1530166994780302,,,,,,,,,,,,,,,,,,,101,1,1,False,False,False,False,2025-02-04_10h32.07.219,inversion_effect,2024.1.0,None,2025-02-04 10h32.27.121280 -0800,
stimuli/inverted_faces/faces_stimuli_UpLong.csv,0,5.0,0.5,3,1,0.41,stimuli/inverted_faces/M127.png,stimuli/inverted_faces/M127morph.png,stimuli/inverted_faces/M127.png,2,faces,long,upright,1,0,,,,,,,,,,,,,0,2,2,2,0,2,2,20,,,,,374.13721960037947,,,,,,,,,,,,374.1295346999541,374.13721960037947,374.13721960037947,374.129824699834,374.1298385001719,upright,374.13721960037947,379.1296809995547,379.1217101002112,379.1217301003635,0.6758882826215985,379.1296809995547,379.7979929000139,379.7886242996901,,,,,,,,,,,,,382.7812558999285,1.2524980971784676,382.78843680024147,384.03877060022205,384.0310041997582,,,,,,,,,,,,,,,,,,,,,,,379.7886514002457,379.7979929000139,379.7979929000139,379.7979929000139,382.78843680024147,382.78843680024147,382.78843680024147,382.780857199803,right,0,380.41189100034535,0.17517689988017082,,,,,,,,,,,,,,,,,,,101,1,1,False,False,False,False,2025-02-04_10h32.07.219,inversion_effect,2024.1.0,None,2025-02-04 10h32.27.121280 -0800,
stimuli/inverted_faces/faces_stimuli_UpLong.csv,0,5.0,0.5,3,1,0.41,stimuli/inverted_faces/M21.png,stimuli/inverted_faces/M21.png,stimuli/inverted_faces/M21morph.png,1,faces,long,upright,1,0,,,,,,,,,,,,,0,2,2,2,0,3,3,11,,,,,384.03877060022205,,,,,,,,,,,,384.03144790045917,384.03877060022205,384.03877060022205,384.03206670004874,384.03208599984646,upright,384.03877060022205,389.03117880038917,389.0235364995897,389.0235615000129,0.5122534191618145,389.03117880038917,389.53961549978703,389.5314610004425,,,,,,,,,,,,,392.52428549993783,1.04113014146246,392.5316316001117,393.56521559972316,393.5572280995548,,,,,,,,,,,,,,,,,,,,,,,389.5314776999876,389.53961549978703,389.53961549978703,389.53961549978703,392.5316316001117,392.5316316001117,392.5316316001117,392.523918800056,left,0,390.2528365002945,0.11106529925018549,,,,,,,,,,,,,,,,,,,101,1,1,False,False,False,False,2025-02-04_10h32.07.219,inversion_effect,2024.1.0,None,2025-02-04 10h32.27.121280 -0800,
stimuli/inverted_faces/faces_stimuli_UpLong.csv,0,5.0,0.5,3,1,0.41,stimuli/inverted_faces/M32.png,stimuli/inverted_faces/M32.png,stimuli/inverted_faces/M32morph.png,1,faces,long,upright,1,0,,,,,,,,,,,,,0,2,2,2,0,4,4,12,,,,,393.56521559972316,,,,,,,,,,,,393.55754840001464,393.56521559972316,393.56521559972316,393.5578725002706,393.5578870996833,upright,393.56521559972316,398.5574776995927,398.5497788004577,398.5498091997579,0.5581087996849036,398.5574776995927,399.1080122999847,399.0996984001249,,,,,,,,,,,,,402.09240600001067,1.0644078139507913,402.0996377998963,403.15830649994314,403.1505711004138,,,,,,,,,,,,,,,,,,,,,,,399.0997181003913,399.1080122999847,399.1080122999847,399.1080122999847,402.0996377998963,402.0996377998963,402.0996377998963,402.09201529994607,left,0,399.7473101997748,0.12023549992591143,,,,,,,,,,,,,,,,,,,101,1,1,False,False,False,False,2025-02-04_10h32.07.219,inversion_effect,2024.1.0,None,2025-02-04 10h32.27.121280 -0800,
stimuli/inverted_faces/faces_stimuli_UpLong.csv,0,5.0,0.5,3,1,0.41,stimuli/inverted_faces/M128.png,stimuli/inverted_faces/M128morph.png,stimuli/inverted_faces/M128.png,2,faces,long,upright,1,0,,,,,,,,,,,,,0,2,2,2,0,5,5,21,,,,,403.15830649994314,,,,,,,,,,,,403.15109870024025,403.15830649994314,403.15830649994314,403.15155129972845,403.15157379955053,upright,403.15830649994314,408.15095710009336,408.14325189962983,408.1432814002037,0.6124527363238393,408.15095710009336,408.762215600349,408.75162569992244,,,,,,,,,,,,,411.7526297001168,1.020613765419327,411.75958569999784,412.7764996998012,412.7684899000451,,,,,,,,,,,,,,,,,,,,,,,408.75165329966694,408.762215600349,408.762215600349,408.762215600349,411.75958569999784,411.75958569999784,411.75958569999784,411.7521786997095,right,0,409.2596359997988,0.09585859999060631,,,,,,,,,,,,,,,,,,,101,1,1,False,False,False,False,2025-02-04_10h32.07.219,inversion_effect,2024.1.0,None,2025-02-04 10h32.27.121280 -0800,
stimuli/inverted_faces/faces_stimuli_UpLong.csv,0,5.0,0.5,3,1,0.41,stimuli/inverted_faces/M119.png,stimuli/inverted_faces/M119morph.png,stimuli/inverted_faces/M119.png,2,faces,long,upright,1,0,,,,,,,,,,,,,0,2,2,2,0,6,6,17,,,,,412.7764996998012,,,,,,,,,,,,412.7688183002174,412.7764996998012,412.7764996998012,412.76915240008384,412.7691663997248,upright,412.7764996998012,417.7687892001122,417.7613989999518,417.76142510026693,0.6247544262505229,417.7687892001122,418.3874262999743,418.3779640002176,,,,,,,,,,,,,421.37914550025016,1.2186501050302778,421.38601869996637,422.6031457995996,422.59528459981084,,,,,,,,,,,,,,,,,,,,,,,418.37798880040646,418.3874262999743,418.3874262999743,418.3874262999743,421.38601869996637,421.38601869996637,421.38601869996637,421.3786706002429,right,0,419.09188610035926,0.11957879923284054,,,,,,,,,,,,,,,,,,,101,1,1,False,False,False,False,2025-02-04_10h32.07.219,inversion_effect,2024.1.0,None,2025-02-04 10h32.27.121280 -0800,
stimuli/inverted_faces/faces_stimuli_UpLong.csv,0,5.0,0.5,3,1,0.41,stimuli/inverted_faces/M122.png,stimuli/inverted_faces/M122.png,stimuli/inverted_faces/M122morph.png,1,faces,long,upright,1,0,,,,,,,,,,,,,0,2,2,2,0,7,7,8,,,,,422.6031457995996,,,,,,,,,,,,422.5957650998607,422.6031457995996,422.6031457995996,422.59626950044185,422.5962902996689,upright,422.6031457995996,427.5952367996797,427.5876115998253,427.58763679955155,0.5430717153116286,427.5952367996797,428.1401645997539,428.12946769967675,,,,,,,,,,,,,431.13027410022914,1.2094883844158784,431.1374298995361,432.3377844998613,432.3300734004006,,,,,,,,,,,,,,,,,,,,,,,428.1294929003343,428.1401645997539,428.1401645997539,428.1401645997539,431.1374298995361,431.1374298995361,431.1374298995361,431.1298698997125,left,0,428.9079862004146,0.12799179926514626,,,,,,,,,,,,,,,,,,,101,1,1,False,False,False,False,2025-02-04_10h32.07.219,inversion_effect,2024.1.0,None,2025-02-04 10h32.27.121280 -0800,
stimuli/inverted_faces/faces_stimuli_UpLong.csv,0,5.0,0.5,3,1,0.41,stimuli/inverted_faces/F7.png,stimuli/inverted_faces/F7.png,stimuli/inverted_faces/F7morph.png,1,faces,long,upright,1,0,,,,,,,,,,,,,0,2,2,2,0,8,8,6,,,,,432.3377844998613,,,,,,,,,,,,432.3305887002498,432.3377844998613,432.3377844998613,432.3310567000881,432.3310780003667,upright,432.3377844998613,437.3299457002431,437.32221390027553,437.3222401002422,0.5082217934849286,437.3299457002431,437.830221099779,437.82190520036966,,,,,,,,,,,,,440.81536979973316,1.0025782906927123,440.82208499964327,441.8223011996597,441.81447170022875,,,,,,,,,,,,,,,,,,,,,,,437.82192020025104,437.830221099779,437.830221099779,437.830221099779,440.82208499964327,440.82208499964327,440.82208499964327,440.81487159989774,left,0,438.5072040995583,0.11199420038610697,,,,,,,,,,,,,,,,,,,101,1,1,False,False,False,False,2025-02-04_10h32.07.219,inversion_effect,2024.1.0,None,2025-02-04 10h32.27.121280 -0800,
stimuli/inverted_faces/faces_stimuli_UpLong.csv,0,5.0,0.5,3,1,0.41,stimuli/inverted_faces/F21.png,stimuli/inverted_faces/F21morph.png,stimuli/inverted_faces/F21.png,2,faces,long,upright,1,0,,,,,,,,,,,,,0,2,2,2,0,9,9,15,,,,,441.8223011996597,,,,,,,,,,,,441.8148902002722,441.8223011996597,441.8223011996597,441.81527910009027,441.8152975002304,upright,441.8223011996597,446.81475669983774,446.8071366995573,446.8071654997766,0.5887038963224942,446.81475669983774,447.4008210003376,447.39046220015734,,,,,,,,,,,,,450.39158350043,1.0464082804232393,450.3985535996035,451.44041610043496,451.432484799996,,,,,,,,,,,,,,,,,,,,,,,447.39048680011183,447.4008210003376,447.4008210003376,447.4008210003376,450.3985535996035,450.3985535996035,450.3985535996035,450.3910713000223,right,0,448.019479399547,0.12805520091205835,,,,,,,,,,,,,,,,,,,101,1,1,False,False,False,False,2025-02-04_10h32.07.219,inversion_effect,2024.1.0,None,2025-02-04 10h32.27.121280 -0800,
stimuli/inverted_faces/faces_stimuli_UpLong.csv,0,5.0,0.5,3,1,0.41,stimuli/inverted_faces/F9.png,stimuli/inverted_faces/F9morph.png,stimuli/inverted_faces/F9.png,2,faces,long,upright,1,0,,,,,,,,,,,,,0,2,2,2,0,10,10,16,,,,,451.44041610043496,,,,,,,,,,,,451.43283759988844,451.44041610043496,451.44041610043496,451.43321209959686,451.433226400055,upright,451.44041610043496,456.43282299954444,456.4251736002043,456.42520279996097,0.539822902270354,456.43282299954444,456.9672373002395,456.95860259979963,,,,,,,,,,,,,459.9512382000685,1.0444557631115645,459.9583194004372,461.0001721996814,460.99259710032493,,,,,,,,,,,,,,,,,,,,,,,456.9586346000433,456.9672373002395,456.9672373002395,456.9672373002395,459.9583194004372,459.9583194004372,459.9583194004372,459.95073639974,right,0,457.9636030001566,0.12042579986155033,,,,,,,,,,,,,,,,,,,101,1,1,False,False,False,False,2025-02-04_10h32.07.219,inversion_effect,2024.1.0,None,2025-02-04 10h32.27.121280 -0800,
stimuli/inverted_faces/faces_stimuli_UpLong.csv,0,5.0,0.5,3,1,0.41,stimuli/inverted_faces/F16.png,stimuli/inverted_faces/F16morph.png,stimuli/inverted_faces/F16.png,2,faces,long,upright,1,0,,,,,,,,,,,,,0,2,2,2,0,11,11,14,,,,,461.0001721996814,,,,,,,,,,,,460.99311699997634,461.0001721996814,461.0001721996814,460.9935752004385,460.99359519965947,upright,461.0001721996814,465.99249729979783,465.98468319978565,465.9847034001723,0.6211688139881764,465.99249729979783,466.61206299997866,466.6015662001446,,,,,,,,,,,,,469.60262610018253,1.0661218062401885,469.6097338004038,470.6683031003922,470.6607568003237,,,,,,,,,,,,,,,,,,,,,,,466.60159199964255,466.61206299997866,466.61206299997866,466.61206299997866,469.6097338004038,469.6097338004038,469.6097338004038,469.6021045995876,right,0,467.2200624998659,0.11965230014175177,,,,,,,,,,,,,,,,,,,101,1,1,False,False,False,False,2025-02-04_10h32.07.219,inversion_effect,2024.1.0,None,2025-02-04 10h32.27.121280 -0800,
stimuli/inverted_faces/faces_stimuli_UpLong.csv,0,5.0,0.5,3,1,0.41,stimuli/inverted_faces/M31.png,stimuli/inverted_faces/M31morph.png,stimuli/inverted_faces/M31.png,2,faces,long,upright,1,0,,,,,,,,,,,,,0,2,2,2,0,12,12,27,,,,,470.6683031003922,,,,,,,,,,,,470.66120610013604,470.6683031003922,470.6683031003922,470.6616986999288,470.6617232998833,upright,470.6683031003922,475.66061200015247,475.6529083997011,475.6529329000041,0.6687730249964838,475.66061200015247,476.32755389995873,476.31946319993585,,,,,,,,,,,,,479.3125560004264,1.1507993699848875,479.3194733997807,480.4614070998505,480.4534325003624,,,,,,,,,,,,,,,,,,,,,,,476.31948279961944,476.32755389995873,476.32755389995873,476.32755389995873,479.3194733997807,479.3194733997807,479.3194733997807,479.31205889955163,right,0,477.1000840999186,0.14373129978775978,,,,,,,,,,,,,,,,,,,101,1,1,False,False,False,False,2025-02-04_10h32.07.219,inversion_effect,2024.1.0,None,2025-02-04 10h32.27.121280 -0800,
stimuli/inverted_faces/faces_stimuli_UpLong.csv,0,5.0,0.5,3,1,0.41,stimuli/inverted_faces/F12.png,stimuli/inverted_faces/F12.png,stimuli/inverted_faces/F12morph.png,1,faces,long,upright,1,0,,,,,,,,,,,,,0,2,2,2,0,13,13,2,,,,,480.4614070998505,,,,,,,,,,,,480.4538085004315,480.4614070998505,480.4614070998505,480.4542127000168,480.4542297003791,upright,480.4614070998505,485.45359409973025,485.4456176003441,485.4456276996061,0.5557963987118223,485.45359409973025,486.00410750042647,485.99594310019165,,,,,,,,,,,,,488.98898649960756,1.187808441068177,488.99594849999994,490.1795303998515,490.1715724999085,,,,,,,,,,,,,,,,,,,,,,,485.9959615999833,486.00410750042647,486.00410750042647,486.00410750042647,488.99594849999994,488.99594849999994,488.99594849999994,488.9884818997234,left,0,486.60363539960235,0.12817780021578074,,,,,,,,,,,,,,,,,,,101,1,1,False,False,False,False,2025-02-04_10h32.07.219,inversion_effect,2024.1.0,None,2025-02-04 10h32.27.121280 -0800,
stimuli/inverted_faces/faces_stimuli_UpLong.csv,0,5.0,0.5,3,1,0.41,stimuli/inverted_faces/F11.png,stimuli/inverted_faces/F11.png,stimuli/inverted_faces/F11morph.png,1,faces,long,upright,1,0,,,,,,,,,,,,,0,2,2,2,0,14,14,1,,,,,490.1795303998515,,,,,,,,,,,,490.17193869967014,490.1795303998515,490.1795303998515,490.1722804000601,490.1722953999415,upright,490.1795303998515,495.1719046998769,495.16442750021815,495.16445790044963,0.5376507665006147,495.1719046998769,495.70547289960086,495.69739330001175,,,,,,,,,,,,,498.6902358001098,1.2505741059610338,498.6973566999659,499.93931929953396,499.9312661001459,,,,,,,,,,,,,,,,,,,,,,,495.6974152997136,495.70547289960086,495.70547289960086,495.70547289960086,498.6973566999659,498.6973566999659,498.6973566999659,498.6898266002536,left,0,496.2601578999311,0.11189640033990145,,,,,,,,,,,,,,,,,,,101,1,1,False,False,False,False,2025-02-04_10h32.07.219,inversion_effect,2024.1.0,None,2025-02-04 10h32.27.121280 -0800,
stimuli/inverted_faces/faces_stimuli_UpLong.csv,0,5.0,0.5,3,1,0.41,stimuli/inverted_faces/M28.png,stimuli/inverted_faces/M28morph.png,stimuli/inverted_faces/M28.png,2,faces,long,upright,1,0,,,,,,,,,,,,,0,2,2,2,0,15,15,26,,,,,499.93931929953396,,,,,,,,,,,,499.9315921002999,499.93931929953396,499.93931929953396,499.93196799978614,499.93198310025036,upright,499.93931929953396,504.9315993003547,504.9239705996588,504.9239961002022,0.6421323668358023,504.9315993003547,505.56550670042634,505.5570794995874,,,,,,,,,,,,,508.55009150039405,1.0378871152116227,508.5571918999776,509.5907400995493,509.58264959976077,,,,,,,,,,,,,,,,,,,,,,,505.55709830019623,505.56550670042634,505.56550670042634,505.56550670042634,508.5571918999776,508.5571918999776,508.5571918999776,508.5496458001435,right,0,506.17139429971576,0.13574620056897402,,,,,,,,,,,,,,,,,,,101,1,1,False,False,False,False,2025-02-04_10h32.07.219,inversion_effect,2024.1.0,None,2025-02-04 10h32.27.121280 -0800,
stimuli/inverted_faces/faces_stimuli_UpLong.csv,0,5.0,0.5,3,1,0.41,stimuli/inverted_faces/M129.png,stimuli/inverted_faces/M129.png,stimuli/inverted_faces/M129morph.png,1,faces,long,upright,1,0,,,,,,,,,,,,,0,2,2,2,0,16,16,10,,,,,509.5907400995493,,,,,,,,,,,,509.5829322999343,509.5907400995493,509.5907400995493,509.5832225000486,509.5832356996834,upright,509.5907400995493,514.5830595996231,514.5757453003898,514.575776799582,0.6171879628170036,514.5830595996231,515.1929874997586,515.1837457995862,,,,,,,,,,,,,518.176517800428,1.213748851159397,518.1836553998291,519.3922346998006,519.3844116004184,,,,,,,,,,,,,,,,,,,,,,,515.1837702002376,515.1929874997586,515.1929874997586,515.1929874997586,518.1836553998291,518.1836553998291,518.1836553998291,518.1760492995381,left,0,515.8280050996691,0.09502410050481558,,,,,,,,,,,,,,,,,,,101,1,1,False,False,False,False,2025-02-04_10h32.07.219,inversion_effect,2024.1.0,None,2025-02-04 10h32.27.121280 -0800,
stimuli/inverted_faces/faces_stimuli_UpLong.csv,0,5.0,0.5,3,1,0.41,stimuli/inverted_faces/F15.png,stimuli/inverted_faces/F15.png,stimuli/inverted_faces/F15morph.png,1,faces,long,upright,1,0,,,,,,,,,,,,,0,2,2,2,0,17,17,4,,,,,519.3922346998006,,,,,,,,,,,,519.3849512003362,519.3922346998006,519.3922346998006,519.3854080000892,519.3854267001152,upright,519.3922346998006,524.3846372999251,524.3768106000498,524.3768296996132,0.6888119130556483,524.3846372999251,525.0700315004215,525.0604253001511,,,,,,,,,,,,,528.0617273002863,1.23356061923154,528.0686330003664,529.2944320999086,529.2859043003991,,,,,,,,,,,,,,,,,,,,,,,525.0604534000158,525.0700315004215,525.0700315004215,525.0700315004215,528.0686330003664,528.0686330003664,528.0686330003664,528.0611469997093,left,0,525.7566349999979,0.09455049969255924,,,,,,,,,,,,,,,,,,,101,1,1,False,False,False,False,2025-02-04_10h32.07.219,inversion_effect,2024.1.0,None,2025-02-04 10h32.27.121280 -0800,
stimuli/inverted_faces/faces_stimuli_UpLong.csv,0,5.0,0.5,3,1,0.41,stimuli/inverted_faces/F10.png,stimuli/inverted_faces/F10.png,stimuli/inverted_faces/F10morph.png,1,faces,long,upright,1,0,,,,,,,,,,,,,0,2,2,2,0,18,18,0,,,,,529.2944320999086,,,,,,,,,,,,529.2864364003763,529.2944320999086,529.2944320999086,529.2870380003005,529.287063700147,upright,529.2944320999086,534.2861136002466,534.2785449000075,534.2785721002147,0.6174097955835776,534.2861136002466,534.8947917995974,534.8866085996851,,,,,,,,,,,,,537.8791613997892,1.131044822427363,537.8864147001877,539.0118848001584,539.0042385999113,,,,,,,,,,,,,,,,,,,,,,,534.8866295004264,534.8947917995974,534.8947917995974,534.8947917995974,537.8864147001877,537.8864147001877,537.8864147001877,537.8787909997627,left,0,535.4670986002311,0.1280621001496911,,,,,,,,,,,,,,,,,,,101,1,1,False,False,False,False,2025-02-04_10h32.07.219,inversion_effect,2024.1.0,None,2025-02-04 10h32.27.121280 -0800,
stimuli/inverted_faces/faces_stimuli_UpLong.csv,0,5.0,0.5,3,1,0.41,stimuli/inverted_faces/M35.png,stimuli/inverted_faces/M35.png,stimuli/inverted_faces/M35morph.png,1,faces,long,upright,1,0,,,,,,,,,,,,,0,2,2,2,0,19,19,13,,,,,539.0118848001584,,,,,,,,,,,,539.0046739000827,539.0118848001584,539.0118848001584,539.0051137004048,539.0051386002451,upright,539.0118848001584,544.0044309999794,543.9967371998355,543.9967638002709,0.5638313302567619,544.0044309999794,544.5628805998713,544.5547626996413,,,,,,,,,,,,,547.5481008002535,1.1829712533784782,547.5548305995762,548.7301511997357,548.7223680997267,,,,,,,,,,,,,,,,,,,,,,,544.5547748003155,544.5628805998713,544.5628805998713,544.5628805998713,547.5548305995762,547.5548305995762,547.5548305995762,547.5475500999019,left,0,545.2515345001593,0.1201201993972063,,,,,,,,,,,,,,,,,,,101,1,1,False,False,False,False,2025-02-04_10h32.07.219,inversion_effect,2024.1.0,None,2025-02-04 10h32.27.121280 -0800,
stimuli/inverted_faces/faces_stimuli_UpLong.csv,0,5.0,0.5,3,1,0.41,stimuli/inverted_faces/M121.png,stimuli/inverted_faces/M121.png,stimuli/inverted_faces/M121morph.png,1,faces,long,upright,1,0,,,,,,,,,,,,,0,2,2,2,0,20,20,7,,,,,548.7301511997357,,,,,,,,,,,,548.7227972997352,548.7301511997357,548.7301511997357,548.723278099671,548.723302599974,upright,548.7301511997357,553.7223073001951,553.7146448995918,553.7146736998111,0.6615704239271443,553.7223073001951,554.3813829002902,554.3731011999771,,,,,,,,,,,,,557.3659635996446,1.1024074015837946,557.3728320999071,558.4730273000896,558.4649839997292,,,,,,,,,,,,,,,,,,,,,,,554.3731308002025,554.3813829002902,554.3813829002902,554.3813829002902,557.3728320999071,557.3728320999071,557.3728320999071,557.365436100401,left,0,554.859130400233,0.11219950020313263,,,,,,,,,,,,,,,,,,,101,1,1,False,False,False,False,2025-02-04_10h32.07.219,inversion_effect,2024.1.0,None,2025-02-04 10h32.27.121280 -0800,
stimuli/inverted_faces/faces_stimuli_UpLong.csv,0,5.0,0.5,3,1,0.41,stimuli/inverted_faces/F13.png,stimuli/inverted_faces/F13.png,stimuli/inverted_faces/F13morph.png,1,faces,long,upright,1,0,,,,,,,,,,,,,0,2,2,2,0,21,21,3,,,,,558.4730273000896,,,,,,,,,,,,558.4653620002791,558.4730273000896,558.4730273000896,558.4657073998824,558.4657231001183,upright,558.4730273000896,563.4653203003109,563.4580608997494,563.4581046998501,0.607636866437919,563.4653203003109,564.0678479000926,564.0579875996336,,,,,,,,,,,,,567.0586141999811,1.0074386107486946,567.0657799998298,568.0660444004461,568.0581246996298,,,,,,,,,,,,,,,,,,,,,,,564.0580222997814,564.0678479000926,564.0678479000926,564.0678479000926,567.0657799998298,567.0657799998298,567.0657799998298,567.0582520999014,left,0,564.4992672996596,0.09673759993165731,,,,,,,,,,,,,,,,,,,101,1,1,False,False,False,False,2025-02-04_10h32.07.219,inversion_effect,2024.1.0,None,2025-02-04 10h32.27.121280 -0800,
stimuli/inverted_faces/faces_stimuli_UpLong.csv,0,5.0,0.5,3,1,0.41,stimuli/inverted_faces/M25.png,stimuli/inverted_faces/M25morph.png,stimuli/inverted_faces/M25.png,2,faces,long,upright,1,0,,,,,,,,,,,,,0,2,2,2,0,22,22,25,,,,,568.0660444004461,,,,,,,,,,,,568.0585067002103,568.0660444004461,568.0660444004461,568.0588560001925,568.058872600086,upright,568.0660444004461,573.0584599003196,573.050780300051,573.0508043002337,0.6731853228581628,573.0584599003196,573.7254419000819,573.7171221002936,,,,,,,,,,,,,576.7101921001449,1.1947648129075334,576.7172552002594,577.9092504000291,577.9014047998935,,,,,,,,,,,,,,,,,,,,,,,573.7171408003196,573.7254419000819,573.7254419000819,573.7254419000819,576.7172552002594,576.7172552002594,576.7172552002594,576.7097739996389,right,0,574.3490671003237,0.1427710996940732,,,,,,,,,,,,,,,,,,,101,1,1,False,False,False,False,2025-02-04_10h32.07.219,inversion_effect,2024.1.0,None,2025-02-04 10h32.27.121280 -0800,
stimuli/inverted_faces/faces_stimuli_UpLong.csv,0,5.0,0.5,3,1,0.41,stimuli/inverted_faces/M126.png,stimuli/inverted_faces/M126.png,stimuli/inverted_faces/M126morph.png,1,faces,long,upright,1,0,,,,,,,,,,,,,0,2,2,2,0,23,23,9,,,,,577.9092504000291,,,,,,,,,,,,577.9018088998273,577.9092504000291,577.9092504000291,577.9022267004475,577.9022439997643,upright,577.9092504000291,582.9017305998132,582.8940022997558,582.8940353998914,0.6763244572396581,582.9017305998132,583.5774474004284,583.5688111996278,,,,,,,,,,,,,586.5617672996596,1.1511195315787424,586.5688490001485,587.7190608000383,587.7109511997551,,,,,,,,,,,,,,,,,,,,,,,583.5688343998045,583.5774474004284,583.5774474004284,583.5774474004284,586.5688490001485,586.5688490001485,586.5688490001485,586.5613101003692,left,0,584.1075734002516,0.112062799744308,,,,,,,,,,,,,,,,,,,101,1,1,False,False,False,False,2025-02-04_10h32.07.219,inversion_effect,2024.1.0,None,2025-02-04 10h32.27.121280 -0800,
stimuli/inverted_faces/faces_stimuli_UpLong.csv,0,5.0,0.5,3,1,0.41,stimuli/inverted_faces/M130.png,stimuli/inverted_faces/M130morph.png,stimuli/inverted_faces/M130.png,2,faces,long,upright,1,0,,,,,,,,,,,,,0,2,2,2,0,24,24,22,,,,,587.7190608000383,,,,,,,,,,,,587.7113613998517,587.7190608000383,587.7190608000383,587.7117817997932,587.7117975996807,upright,587.7190608000383,592.7114014998078,592.7036049999297,592.7036260003224,0.5401298615970743,592.7114014998078,593.2466064002365,593.2369224000722,,,,,,,,,,,,,596.2381392000243,1.101280447632702,596.2453051004559,597.3454205999151,597.3376832995564,,,,,,,,,,,,,,,,,,,,,,,593.2369427997619,593.2466064002365,593.2466064002365,593.2466064002365,596.2453051004559,596.2453051004559,596.2453051004559,596.237765699625,right,0,593.9154604002833,0.1281261993572116,,,,,,,,,,,,,,,,,,,101,1,1,False,False,False,False,2025-02-04_10h32.07.219,inversion_effect,2024.1.0,None,2025-02-04 10h32.27.121280 -0800,
stimuli/inverted_faces/faces_stimuli_UpLong.csv,0,5.0,0.5,3,1,0.41,stimuli/inverted_faces/M123.png,stimuli/inverted_faces/M123morph.png,stimuli/inverted_faces/M123.png,2,faces,long,upright,1,0,,,,,,,,,,,,,0,2,2,2,0,25,25,18,,,,,597.3454205999151,,,,,,,,,,,,597.338055100292,597.3454205999151,597.3454205999151,597.338615000248,597.3386324997991,upright,597.3454205999151,602.337783199735,602.3302490999922,602.3302825996652,0.6120247912461301,602.337783199735,602.9476543003693,602.9385829996318,,,,,,,,,,,,,605.9309831000865,1.132351287066063,605.9384204000235,607.063632699661,607.0555493002757,,,,,,,,,,,,,,,,,,,,,,,602.9386056996882,602.9476543003693,602.9476543003693,602.9476543003693,605.9384204000235,605.9384204000235,605.9384204000235,605.9306514002383,right,0,603.5873990999535,0.1277352999895811,,,,,,,,,,,,,,,,,,,101,1,1,False,False,False,False,2025-02-04_10h32.07.219,inversion_effect,2024.1.0,None,2025-02-04 10h32.27.121280 -0800,
stimuli/inverted_faces/faces_stimuli_UpLong.csv,0,5.0,0.5,3,1,0.41,stimuli/inverted_faces/M125.png,stimuli/inverted_faces/M125morph.png,stimuli/inverted_faces/M125.png,2,faces,long,upright,1,0,,,,,,,,,,,,,0,2,2,2,0,26,26,19,,,,,607.063632699661,,,,,,,,,,,,607.0558227999136,607.063632699661,607.063632699661,607.0560817001387,607.056094000116,upright,607.063632699661,612.0559572996572,612.048249299638,612.048274599947,0.5685083341334174,612.0559572996572,612.6247533001006,612.6147763999179,,,,,,,,,,,,,615.6162064000964,1.0323457473040478,615.6230832003057,616.6488878000528,616.6410033004358,,,,,,,,,,,,,,,,,,,,,,,612.6147950999439,612.6247533001006,612.6247533001006,612.6247533001006,615.6230832003057,615.6230832003057,615.6230832003057,615.6157323000953,left,0,613.4520201003179,0.09604059997946024,,,,,,,,,,,,,,,,,,,101,1,1,False,False,False,False,2025-02-04_10h32.07.219,inversion_effect,2024.1.0,None,2025-02-04 10h32.27.121280 -0800,
stimuli/inverted_faces/faces_stimuli_UpLong.csv,0,5.0,0.5,3,1,0.41,stimuli/inverted_faces/F18.png,stimuli/inverted_faces/F18.png,stimuli/inverted_faces/F18morph.png,1,faces,long,upright,1,0,,,,,,,,,,,,,0,2,2,2,0,27,27,5,,,,,616.6488878000528,,,,,,,,,,,,616.6414989000186,616.6488878000528,616.6488878000528,616.6422060001642,616.6422252003103,upright,616.6488878000528,621.6406669002026,621.6329760998487,621.6330003002658,0.6250849898434973,621.6406669002026,622.2576460000128,622.2494457000867,,,,,,,,,,,,,625.2428602995351,1.0054662172350561,625.2494829995558,626.2956878999248,626.2421343000606,,,,,,,,,,,,,,,,,,,,,,,622.2494655996561,622.2576460000128,622.2576460000128,622.2576460000128,625.2494829995558,625.2494829995558,625.2494829995558,625.2422871002927,left,0,623.2046181000769,0.10250640008598566,,,,,,,,,,,,,,,,,,,101,1,1,False,False,False,False,2025-02-04_10h32.07.219,inversion_effect,2024.1.0,None,2025-02-04 10h32.27.121280 -0800,
stimuli/inverted_faces/faces_stimuli_InvLong.csv,0,5.0,0.5,3,1,0.41,stimuli/inverted_faces/M127.png,stimuli/inverted_faces/M127.png,stimuli/inverted_faces/M127morph.png,1,faces,long,inverted,0,1,,,,,,,,,,,,,0,3,3,3,,,,,0,0,0,8,628.2649480998516,,,,,,,,,,,,628.2610152000561,628.2649480998516,628.2649480998516,628.2612426001579,,inverted,,,,633.2516278997064,0.6316145008988173,633.2590867998078,633.8870157003403,633.8763822996989,,,,,,,,,,,,,636.8779121004045,1.1783476893139815,636.8846239997074,638.0598464002833,638.0519877998158,628.2612503003329,628.2649480998516,633.2590867998078,633.2515973998234,,,,,,,,,,,,,,,,,,,,,,,,,,,,,,,626.2933954996988,626.2956878999248,628.2500742999837,633.8764056004584,633.8870157003403,633.8870157003403,633.8870157003403,636.8846239997074,636.8846239997074,636.8846239997074,636.8771339999512,left,0,634.667807799764,0.12798089999705553,,,,101,1,1,False,False,False,False,2025-02-04_10h32.07.219,inversion_effect,2024.1.0,None,2025-02-04 10h32.27.121280 -0800,
stimuli/inverted_faces/faces_stimuli_InvLong.csv,0,5.0,0.5,3,1,0.41,stimuli/inverted_faces/M21.png,stimuli/inverted_faces/M21.png,stimuli/inverted_faces/M21morph.png,1,faces,long,inverted,0,1,,,,,,,,,,,,,0,3,3,3,,,,,0,1,1,4,638.0598464002833,,,,,,,,,,,,638.0522646997124,638.0598464002833,638.0598464002833,638.052665299736,,inverted,,,,643.0442177997902,0.5019187422561013,643.0521609997377,643.5528563000262,643.5445251995698,,,,,,,,,,,,,646.5377037003636,1.0617974803774373,646.5446204002947,647.6030874997377,647.5953398998827,638.0526778995991,638.0598464002833,643.0521609997377,643.0442017000169,,,,,,,,,,,,,,,,,,,,,,,,,,,,,,,,,,643.544548000209,643.5528563000262,643.5528563000262,643.5528563000262,646.5446204002947,646.5446204002947,646.5446204002947,646.5371121000499,left,0,644.7797993002459,0.12791819963604212,,,,101,1,1,False,False,False,False,2025-02-04_10h32.07.219,inversion_effect,2024.1.0,None,2025-02-04 10h32.27.121280 -0800,
stimuli/inverted_faces/faces_stimuli_InvLong.csv,0,5.0,0.5,3,1,0.41,stimuli/inverted_faces/M125.png,stimuli/inverted_faces/M125morph.png,stimuli/inverted_faces/M125.png,2,faces,long,inverted,0,1,,,,,,,,,,,,,0,3,3,3,,,,,0,2,2,24,647.6030874997377,,,,,,,,,,,,647.5958006996661,647.6030874997377,647.6030874997377,647.5962119996548,,inverted,,,,652.5877032000571,0.5413598484722498,652.5953569998965,653.1299456004053,653.121020800434,,,,,,,,,,,,,656.1135854003951,1.1872359503888479,656.1209386996925,657.304585499689,657.2967143999413,647.5962295001373,647.6030874997377,652.5953569998965,652.5876705003902,,,,,,,,,,,,,,,,,,,,,,,,,,,,,,,,,,653.1210455996916,653.1299456004053,653.1299456004053,653.1299456004053,656.1209386996925,656.1209386996925,656.1209386996925,656.1132367001846,right,0,653.9152662996203,0.15196030028164387,,,,101,1,1,False,False,False,False,2025-02-04_10h32.07.219,inversion_effect,2024.1.0,None,2025-02-04 10h32.27.121280 -0800,
stimuli/inverted_faces/faces_stimuli_InvLong.csv,0,5.0,0.5,3,1,0.41,stimuli/inverted_faces/F10.png,stimuli/inverted_faces/F10.png,stimuli/inverted_faces/F10morph.png,1,faces,long,inverted,0,1,,,,,,,,,,,,,0,3,3,3,,,,,0,3,3,13,657.304585499689,,,,,,,,,,,,657.2971730995923,657.304585499689,657.304585499689,657.2975898999721,,inverted,,,,662.2893655002117,0.5906544443125166,662.2970097996294,662.882522800006,662.8726351000369,,,,,,,,,,,,,665.8739484995604,1.1746948334400624,665.8807599004358,667.0478443000466,667.0398936001584,657.2976109003648,657.304585499689,662.2970097996294,662.2893316997215,,,,,,,,,,,,,,,,,,,,,,,,,,,,,,,,,,662.8726620003581,662.882522800006,662.882522800006,662.882522800006,665.8807599004358,665.8807599004358,665.8807599004358,665.87338539958,left,0,663.8599666999653,0.1514926003292203,,,,101,1,1,False,False,False,False,2025-02-04_10h32.07.219,inversion_effect,2024.1.0,None,2025-02-04 10h32.27.121280 -0800,
stimuli/inverted_faces/faces_stimuli_InvLong.csv,0,5.0,0.5,3,1,0.41,stimuli/inverted_faces/F21.png,stimuli/inverted_faces/F21morph.png,stimuli/inverted_faces/F21.png,2,faces,long,inverted,0,1,,,,,,,,,,,,,0,3,3,3,,,,,0,4,4,22,667.0478443000466,,,,,,,,,,,,667.0403054002672,667.0478443000466,667.0478443000466,667.0407649995759,,inverted,,,,672.0327920001,0.5163479192327076,672.0400273995474,672.5503609003499,672.5406571002677,,,,,,,,,,,,,675.5416353996843,1.134917126772491,675.5487037999555,676.682334699668,676.6744139995426,667.040787300095,667.0478443000466,672.0400273995474,672.0327514000237,,,,,,,,,,,,,,,,,,,,,,,,,,,,,,,,,,672.5406908998266,672.5503609003499,672.5503609003499,672.5503609003499,675.5487037999555,675.5487037999555,675.5487037999555,675.5411158995703,right,0,673.2434117998928,0.15201930049806833,,,,101,1,1,False,False,False,False,2025-02-04_10h32.07.219,inversion_effect,2024.1.0,None,2025-02-04 10h32.27.121280 -0800,
stimuli/inverted_faces/faces_stimuli_InvLong.csv,0,5.0,0.5,3,1,0.41,stimuli/inverted_faces/M32.png,stimuli/inverted_faces/M32morph.png,stimuli/inverted_faces/M32.png,2,faces,long,inverted,0,1,,,,,,,,,,,,,0,3,3,3,,,,,0,5,5,20,676.682334699668,,,,,,,,,,,,676.6749056000262,676.682334699668,676.682334699668,676.6752933999524,,inverted,,,,681.6671061003581,0.5701195688329943,681.6746415002272,682.2414966002107,682.2334864996374,,,,,,,,,,,,,685.2263494003564,1.087451981613697,685.2334495000541,686.3169980999082,686.3090447997674,676.6753107002005,676.682334699668,681.6746415002272,681.6670741997659,,,,,,,,,,,,,,,,,,,,,,,,,,,,,,,,,,682.2335062995553,682.2414966002107,682.2414966002107,682.2414966002107,685.2334495000541,685.2334495000541,685.2334495000541,685.2259456003085,right,0,682.9637639997527,0.12802650034427643,,,,101,1,1,False,False,False,False,2025-02-04_10h32.07.219,inversion_effect,2024.1.0,None,2025-02-04 10h32.27.121280 -0800,
stimuli/inverted_faces/faces_stimuli_InvLong.csv,0,5.0,0.5,3,1,0.41,stimuli/inverted_faces/F18.png,stimuli/inverted_faces/F18.png,stimuli/inverted_faces/F18morph.png,1,faces,long,inverted,0,1,,,,,,,,,,,,,0,3,3,3,,,,,0,6,6,0,686.3169980999082,,,,,,,,,,,,686.3093915004283,686.3169980999082,686.3169980999082,686.3097275998443,,inverted,,,,691.3023616997525,0.6799167434966604,691.3095127996057,691.9853514004499,691.9767367001623,,,,,,,,,,,,,694.9692216999829,1.0076496756645237,694.9765689000487,695.9768193997443,695.9688715003431,686.309741999954,686.3169980999082,691.3095127996057,691.3023327002302,,,,,,,,,,,,,,,,,,,,,,,,,,,,,,,,,,691.9767586998641,691.9853514004499,691.9853514004499,691.9853514004499,694.9765689000487,694.9765689000487,694.9765689000487,694.968837399967,left,0,693.0441672001034,0.12713500019162893,,,,101,1,1,False,False,False,False,2025-02-04_10h32.07.219,inversion_effect,2024.1.0,None,2025-02-04 10h32.27.121280 -0800,
stimuli/inverted_faces/faces_stimuli_InvLong.csv,0,5.0,0.5,3,1,0.41,stimuli/inverted_faces/M126.png,stimuli/inverted_faces/M126.png,stimuli/inverted_faces/M126morph.png,1,faces,long,inverted,0,1,,,,,,,,,,,,,0,3,3,3,,,,,0,7,7,2,695.9768193997443,,,,,,,,,,,,695.9692580997944,695.9768193997443,695.9768193997443,695.9696591999382,,inverted,,,,700.9616411002353,0.68901509620232,700.9691115003079,701.6554100001231,701.6446038996801,,,,,,,,,,,,,704.6460119001567,1.1920769751913451,704.6530328998342,705.8366590999067,705.8286656001583,695.9696757001802,695.9768193997443,700.9691115003079,700.9616088997573,,,,,,,,,,,,,,,,,,,,,,,,,,,,,,,,,,701.6446243999526,701.6554100001231,701.6554100001231,701.6554100001231,704.6530328998342,704.6530328998342,704.6530328998342,704.6455452004448,right,0,702.5316359996796,0.16053280048072338,,,,101,1,1,False,False,False,False,2025-02-04_10h32.07.219,inversion_effect,2024.1.0,None,2025-02-04 10h32.27.121280 -0800,
stimuli/inverted_faces/faces_stimuli_InvLong.csv,0,5.0,0.5,3,1,0.41,stimuli/inverted_faces/F9.png,stimuli/inverted_faces/F9morph.png,stimuli/inverted_faces/F9.png,2,faces,long,inverted,0,1,,,,,,,,,,,,,0,3,3,3,,,,,0,8,8,23,705.8366590999067,,,,,,,,,,,,705.8290654001758,705.8366590999067,705.8366590999067,705.8294190997258,,inverted,,,,710.8212633999065,0.5722060282706454,710.8289534002542,711.3958508996293,711.3877576999366,,,,,,,,,,,,,714.380686099641,1.043402594864009,714.387784499675,715.4297182001173,715.4216726003215,705.8294350001961,705.8366590999067,710.8289534002542,710.8212379002944,,,,,,,,,,,,,,,,,,,,,,,,,,,,,,,,,,711.3877742998302,711.3958508996293,711.3958508996293,711.3958508996293,714.387784499675,714.387784499675,714.387784499675,714.3802789999172,right,0,712.5240286998451,0.1271297000348568,,,,101,1,1,False,False,False,False,2025-02-04_10h32.07.219,inversion_effect,2024.1.0,None,2025-02-04 10h32.27.121280 -0800,
stimuli/inverted_faces/faces_stimuli_InvLong.csv,0,5.0,0.5,3,1,0.41,stimuli/inverted_faces/F12.png,stimuli/inverted_faces/F12morph.png,stimuli/inverted_faces/F12.png,2,faces,long,inverted,0,1,,,,,,,,,,,,,0,3,3,3,,,,,0,9,9,15,715.4297182001173,,,,,,,,,,,,715.4220011001453,715.4297182001173,715.4297182001173,715.42234359961,,inverted,,,,720.4143439000472,0.5338532438435678,720.4219720996916,720.9485967997462,720.9394945995882,,,,,,,,,,,,,723.931804199703,1.0705645859357165,723.939205000177,725.0061480998993,724.9982930002734,715.4223587000743,715.4297182001173,720.4219720996916,720.4143185997382,,,,,,,,,,,,,,,,,,,,,,,,,,,,,,,,,,720.9395171999931,720.9485967997462,720.9485967997462,720.9485967997462,723.939205000177,723.939205000177,723.939205000177,723.9314909996465,right,0,721.6592287998646,0.14455659966915846,,,,101,1,1,False,False,False,False,2025-02-04_10h32.07.219,inversion_effect,2024.1.0,None,2025-02-04 10h32.27.121280 -0800,
stimuli/inverted_faces/faces_stimuli_InvLong.csv,0,5.0,0.5,3,1,0.41,stimuli/inverted_faces/M123.png,stimuli/inverted_faces/M123.png,stimuli/inverted_faces/M123morph.png,1,faces,long,inverted,0,1,,,,,,,,,,,,,0,3,3,3,,,,,0,10,10,7,725.0061480998993,,,,,,,,,,,,724.9987864997238,725.0061480998993,725.0061480998993,724.9992500999942,,inverted,,,,729.9907175004482,0.5968808580813727,729.9983986997977,730.5917520001531,730.5824634004384,,,,,,,,,,,,,733.5753391003236,1.1733442501859086,733.5823616003618,734.7492755996063,734.7414908995852,724.999267200008,725.0061480998993,729.9983986997977,729.990696599707,,,,,,,,,,,,,,,,,,,,,,,,,,,,,,,,,,730.5824880003929,730.5917520001531,730.5917520001531,730.5917520001531,733.5823616003618,733.5823616003618,733.5823616003618,733.5748212002218,right,0,731.1233296999708,0.1442280998453498,,,,101,1,1,False,False,False,False,2025-02-04_10h32.07.219,inversion_effect,2024.1.0,None,2025-02-04 10h32.27.121280 -0800,
stimuli/inverted_faces/faces_stimuli_InvLong.csv,0,5.0,0.5,3,1,0.41,stimuli/inverted_faces/M122.png,stimuli/inverted_faces/M122morph.png,stimuli/inverted_faces/M122.png,2,faces,long,inverted,0,1,,,,,,,,,,,,,0,3,3,3,,,,,0,11,11,19,734.7492755996063,,,,,,,,,,,,734.7419916996732,734.7492755996063,734.7492755996063,734.7424938995391,,inverted,,,,739.7342012003064,0.5468324584845554,739.741678699851,740.2864923998713,740.2756492001936,,,,,,,,,,,,,743.2768866000697,1.2598743207497352,743.2838359000161,744.5428716996685,744.5347894001752,734.7425143998116,734.7492755996063,739.741678699851,739.7341654999182,,,,,,,,,,,,,,,,,,,,,,,,,,,,,,,,,,740.2756775002927,740.2864923998713,740.2864923998713,740.2864923998713,743.2838359000161,743.2838359000161,743.2838359000161,743.2763242004439,right,0,740.9555213004351,0.1601809998974204,,,,101,1,1,False,False,False,False,2025-02-04_10h32.07.219,inversion_effect,2024.1.0,None,2025-02-04 10h32.27.121280 -0800,
stimuli/inverted_faces/faces_stimuli_InvLong.csv,0,5.0,0.5,3,1,0.41,stimuli/inverted_faces/M25.png,stimuli/inverted_faces/M25.png,stimuli/inverted_faces/M25morph.png,1,faces,long,inverted,0,1,,,,,,,,,,,,,0,3,3,3,,,,,0,12,12,11,744.5428716996685,,,,,,,,,,,,744.5352886002511,744.5428716996685,744.5428716996685,744.5357390996069,,inverted,,,,749.5272770002484,0.5232432954773388,749.5347881000489,750.0519268000498,750.0435912003741,,,,,,,,,,,,,753.0364293996245,1.103033358286616,753.0435399999842,754.1438175998628,754.1358845997602,744.5357584999874,744.5428716996685,749.5347881000489,749.5272445995361,,,,,,,,,,,,,,,,,,,,,,,,,,,,,,,,,,750.0436124000698,750.0519268000498,750.0519268000498,750.0519268000498,753.0435399999842,753.0435399999842,753.0435399999842,753.0359643995762,left,0,750.6595200002193,0.1439889995381236,,,,101,1,1,False,False,False,False,2025-02-04_10h32.07.219,inversion_effect,2024.1.0,None,2025-02-04 10h32.27.121280 -0800,
