block_list,fix_dur,target_dur,isi_dur,probe_dur,iti_dur,stim_size,target_list,probe_L,probe_R,correct_resp,condStim,condDur,condOrient,upright_flag,inverted_flag,blocks_practice.thisRepN,blocks_practice.thisTrialN,blocks_practice.thisN,blocks_practice.thisIndex,trials_practice_up.thisRepN,trials_practice_up.thisTrialN,trials_practice_up.thisN,trials_practice_up.thisIndex,trials_practice_inv.thisRepN,trials_practice_inv.thisTrialN,trials_practice_inv.thisN,trials_practice_inv.thisIndex,blocks_order.thisRepN,blocks_order.thisTrialN,blocks_order.thisN,blocks_order.thisIndex,trials_upright.thisRepN,trials_upright.thisTrialN,trials_upright.thisN,trials_upright.thisIndex,trials_inverted.thisRepN,trials_inverted.thisTrialN,trials_inverted.thisN,trials_inverted.thisIndex,thisRow.t,notes,Start.started,Start.stopped,instrPractice.started,key_resp_practice.started,instrPractice.stopped,key_resp_practice.keys,key_resp_practice.rt,key_resp_practice.duration,getReady.started,getReady.stopped,Fixation.started,text_fixation.started,text_fixation.stopped,Fixation.stopped,EncodingUpright.started,orient,image_target_upright.started,image_target_upright.stopped,EncodingUpright.stopped,ISI.started,isi_jittered,text_isi.started,text_isi.stopped,ISI.stopped,ProbeUpPractice.started,image_probePrac_up_left.started,image_probePrace_up_right.started,key_resp_up_prac.started,image_probePrac_up_left.stopped,image_probePrace_up_right.stopped,key_resp_up_prac.stopped,ProbeUpPractice.stopped,key_resp_up_prac.keys,key_resp_up_prac.corr,key_resp_up_prac.rt,key_resp_up_prac.duration,ITI.started,iti_jittered,text_iti.started,text_iti.stopped,ITI.stopped,EncodingInverted.started,image_target_inverted.started,image_target_inverted.stopped,EncodingInverted.stopped,ProbeInvPractice.started,image_probePrac_inv_left.started,image_probePrace_inv_right.started,key_resp_inv_prac.started,image_probePrac_inv_left.stopped,image_probePrace_inv_right.stopped,key_resp_inv_prac.stopped,ProbeInvPractice.stopped,key_resp_inv_prac.keys,key_resp_inv_prac.corr,FB_Practice.started,key_resp_endPractice.started,FB_Practice.stopped,key_resp_endPractice.keys,key_resp_endPractice.rt,key_resp_endPractice.duration,ProbeUpright.started,image_probe_upright_left.started,image_probe_upright_right.started,key_resp_upright.started,image_probe_upright_left.stopped,image_probe_upright_right.stopped,key_resp_upright.stopped,ProbeUpright.stopped,key_resp_upright.keys,key_resp_upright.corr,key_resp_upright.rt,key_resp_upright.duration,IBI.started,text_ibi.started,IBI.stopped,ProbeInverted.started,image_probe_inverted_left.started,image_probe_inverted_right.started,key_resp_inverted.started,image_probe_inverted_left.stopped,image_probe_inverted_right.stopped,key_resp_inverted.stopped,ProbeInverted.stopped,key_resp_inverted.keys,key_resp_inverted.corr,key_resp_inverted.rt,key_resp_inverted.duration,ThankYou.started,text_thanks.started,ThankYou.stopped,participant,session,order,EEG,EyeLink,EyeTribe,Calibrate,date,expName,psychopyVersion,frameRate,expStart,
,,,,,,,,,,,,,,,,,,,,,,,,,,,,,,,,,,,,,,,,,,0.005221100058406591,0.007481200038455427,,,,,,,,,,,,,,,,,,,,,,,,,,,,,,,,,,,,,,,,,,,,,,,,,,,,,,,,,,,,,,,,,,,,,,,,,,,,,,,,,,,,,,,,,,P002,1,2,False,False,False,False,2025-02-11_15h51.37.847,inversion_effect,2024.1.0,None,2025-02-11 15h52.00.114992 -0800,
,,,,,,,,,,,,,,,,,,,,,,,,,,,,,,,,,,,,,,,,,,,,0.007497500046156347,0.011245800065807998,23.44675660005305,space,23.38864880008623,None,,,,,,,,,,,,,,,,,,,,,,,,,,,,,,,,,,,,,,,,,,,,,,,,,,,,,,,,,,,,,,,,,,,,,,,,,,,,,,,,,,,,P002,1,2,False,False,False,False,2025-02-11_15h51.37.847,inversion_effect,2024.1.0,None,2025-02-11 15h52.00.114992 -0800,
stimuli/practice_stimuli.csv,0.5,5,0.5,3,0.5,0.41,stimuli/inverted_faces/M125.png,stimuli/inverted_faces/M125morph.png,stimuli/inverted_faces/M125.png,2,,,,,,0,0,0,0,0,0,0,0,,,,,,,,,,,,,,,,,28.459913600003347,,,,,,,,,,23.46062000002712,28.447793500032276,28.456388400052674,28.459913600003347,28.968900299980305,28.948720599990338,28.94874380005058,upright,28.968900299980305,33.96608919999562,33.9576359000057,33.95765870006289,0.6775099391513426,33.96608919999562,34.64941140008159,34.63255910004955,34.632578600081615,34.64941140008159,34.64941140008159,34.64941140008159,37.64051090006251,37.64051090006251,37.64051090006251,37.63269580004271,right,0,36.22739440004807,0.12808069994207472,37.6347170000663,0.7911750059431917,37.64051090006251,38.44757890002802,38.4163071999792,,,,,,,,,,,,,,,,,,,,,,,,,,,,,,,,,,,,,,,,,,,,,,,,,,,P002,1,2,False,False,False,False,2025-02-11_15h51.37.847,inversion_effect,2024.1.0,None,2025-02-11 15h52.00.114992 -0800,
stimuli/practice_stimuli.csv,0.5,5,0.5,3,0.5,0.41,stimuli/inverted_faces/F10.png,stimuli/inverted_faces/F10morph.png,stimuli/inverted_faces/F10.png,2,,,,,,0,0,0,0,,,,,0,0,0,0,,,,,,,,,,,,,38.44757890002802,,,,,,,,,,,,38.44440590008162,38.44757890002802,38.94288430002052,38.93263440008741,,inverted,,,,43.93375319999177,0.5200461944518427,43.9415923000779,44.46136070007924,44.45022360002622,,,,,,,,,,,,,47.45114930009004,0.5759469313976546,47.45878560002893,48.0594094999833,48.01743190002162,38.93264680006541,38.94288430002052,43.9415923000779,43.933733400073834,44.45023890002631,44.46136070007924,44.46136070007924,44.46136070007924,47.45878560002893,47.45878560002893,47.45878560002893,47.4508560000686,None,0,,,,,,,,,,,,,,,,,,,,,,,,,,,,,,,,,,,,,P002,1,2,False,False,False,False,2025-02-11_15h51.37.847,inversion_effect,2024.1.0,None,2025-02-11 15h52.00.114992 -0800,
,,,,,,,,,,,,,,,,,,,,,,,,,,,,,,,,,,,,,,,,,,,,,,,,,,,,,,,,,,,,,,,,,,,,,,,,,,,,,,,,,,,,,,,,,,,,,,,,,48.04234140005428,48.0594094999833,53.81021430005785,space,53.80379759997595,None,,,,,,,,,,,,,,,,,,,,,,,,,,,,,,,P002,1,2,False,False,False,False,2025-02-11_15h51.37.847,inversion_effect,2024.1.0,None,2025-02-11 15h52.00.114992 -0800,
,,,,,,,,,,,,,,,,,,,,,,,,,,,,,,,,,,,,,,,,,,,,,,,,,,53.81023930001538,58.80251359997783,,,,,,,,,,,,,,,,,,,,,,,,,,,,,,,,,,,,,,,,,,,,,,,,,,,,,,,,,,,,,,,,,,,,,,,,,,,,,,,,,,P002,1,2,False,False,False,False,2025-02-11_15h51.37.847,inversion_effect,2024.1.0,None,2025-02-11 15h52.00.114992 -0800,
stimuli/inverted_faces/faces_stimuli_UpShort.csv,0,0.5,0.5,3,1,0.41,stimuli/inverted_faces/M121.png,stimuli/inverted_faces/M121.png,stimuli/inverted_faces/M121morph.png,1,faces,short,upright,1,0,,,,,,,,,,,,,0,0,0,0,0,0,0,7,,,,,58.829552500043064,,,,,,,,,,,,58.821833400055766,58.829552500043064,58.829552500043064,58.82215260004159,58.822162900003605,upright,58.829552500043064,59.32727150002029,59.319517600000836,59.31953410001006,0.6524204851706829,59.32727150002029,59.9836832000874,59.96942700003274,,,,,,,,,,,,,62.970265900017694,1.0223020018414357,62.9779207999818,63.99620799999684,63.986667299992405,,,,,,,,,,,,,,,,,,,,,59.969442300032824,59.9836832000874,59.9836832000874,59.9836832000874,62.9779207999818,62.9779207999818,62.9779207999818,62.96987300005276,left,0,60.54793390003033,0.10403749998658895,,,,,,,,,,,,,,,,,,,P002,1,2,False,False,False,False,2025-02-11_15h51.37.847,inversion_effect,2024.1.0,None,2025-02-11 15h52.00.114992 -0800,
stimuli/inverted_faces/faces_stimuli_UpShort.csv,0,0.5,0.5,3,1,0.41,stimuli/inverted_faces/F15.png,stimuli/inverted_faces/F15.png,stimuli/inverted_faces/F15morph.png,1,faces,short,upright,1,0,,,,,,,,,,,,,0,0,0,0,0,1,1,4,,,,,63.99620799999684,,,,,,,,,,,,63.9868491999805,63.99620799999684,63.99620799999684,63.9869822000619,63.98698849999346,upright,63.99620799999684,64.48679190000985,64.47907430003397,64.47909839998465,0.5837674620382567,64.48679190000985,65.06624329998158,65.05395680002403,,,,,,,,,,,,,68.05485770001542,1.2604641233564196,68.06214819999877,69.38012670003809,69.31265510001685,,,,,,,,,,,,,,,,,,,,,65.05397690006066,65.06624329998158,65.06624329998158,65.06624329998158,68.06214819999877,68.06214819999877,68.06214819999877,68.05446540005505,left,0,65.78795919998083,0.10397779999766499,,,,,,,,,,,,,,,,,,,P002,1,2,False,False,False,False,2025-02-11_15h51.37.847,inversion_effect,2024.1.0,None,2025-02-11 15h52.00.114992 -0800,
stimuli/inverted_faces/faces_stimuli_UpShort.csv,0,0.5,0.5,3,1,0.41,stimuli/inverted_faces/M31.png,stimuli/inverted_faces/M31morph.png,stimuli/inverted_faces/M31.png,2,faces,short,upright,1,0,,,,,,,,,,,,,0,0,0,0,0,2,2,27,,,,,69.38012670003809,,,,,,,,,,,,69.31299280002713,69.38012670003809,69.38012670003809,69.3132762000896,69.3132899000775,upright,69.38012670003809,69.87101870006882,69.8629884000402,69.86300870007835,0.5904412058818894,69.87101870006882,70.45994940004312,70.44598349998705,,,,,,,,,,,,,73.44702780002262,1.1399871287113028,73.45457370008808,74.5918450000463,74.580384699977,,,,,,,,,,,,,,,,,,,,,70.4460001999978,70.45994940004312,70.45994940004312,70.45994940004312,73.45457370008808,73.45457370008808,73.45457370008808,73.4467055000132,left,0,71.29960660007782,0.11204839998390526,,,,,,,,,,,,,,,,,,,P002,1,2,False,False,False,False,2025-02-11_15h51.37.847,inversion_effect,2024.1.0,None,2025-02-11 15h52.00.114992 -0800,
stimuli/inverted_faces/faces_stimuli_UpShort.csv,0,0.5,0.5,3,1,0.41,stimuli/inverted_faces/F9.png,stimuli/inverted_faces/F9morph.png,stimuli/inverted_faces/F9.png,2,faces,short,upright,1,0,,,,,,,,,,,,,0,0,0,0,0,3,3,16,,,,,74.5918450000463,,,,,,,,,,,,74.58077240001876,74.5918450000463,74.5918450000463,74.58108610007912,74.58110120007768,upright,74.5918450000463,75.08823250001296,75.08036550006364,75.08038579998538,0.6948068078584047,75.08823250001296,75.78525980003178,75.77236060006544,,,,,,,,,,,,,78.77256409998517,1.1640403031952478,78.78032190003432,79.93977300007828,79.93063970003277,,,,,,,,,,,,,,,,,,,,,75.77238360000774,75.78525980003178,75.78525980003178,75.78525980003178,78.78032190003432,78.78032190003432,78.78032190003432,78.77227249997668,right,0,76.87568499997724,0.12797730008605868,,,,,,,,,,,,,,,,,,,P002,1,2,False,False,False,False,2025-02-11_15h51.37.847,inversion_effect,2024.1.0,None,2025-02-11 15h52.00.114992 -0800,
stimuli/inverted_faces/faces_stimuli_UpShort.csv,0,0.5,0.5,3,1,0.41,stimuli/inverted_faces/M123.png,stimuli/inverted_faces/M123morph.png,stimuli/inverted_faces/M123.png,2,faces,short,upright,1,0,,,,,,,,,,,,,0,0,0,0,0,4,4,18,,,,,79.93977300007828,,,,,,,,,,,,79.93087360006757,79.93977300007828,79.93977300007828,79.93108660005964,79.93109720002394,upright,79.93977300007828,80.43065870006103,80.42273300001398,80.42275060003158,0.6257717844446021,80.43065870006103,81.0521093000425,81.03952520003077,,,,,,,,,,,,,84.03966210002545,1.089864632065797,84.04742860002443,85.1329825000139,85.12320869998075,,,,,,,,,,,,,,,,,,,,,81.03954470006283,81.0521093000425,81.0521093000425,81.0521093000425,84.04742860002443,84.04742860002443,84.04742860002443,84.03947710001376,right,0,82.23557530005928,0.14414039999246597,,,,,,,,,,,,,,,,,,,P002,1,2,False,False,False,False,2025-02-11_15h51.37.847,inversion_effect,2024.1.0,None,2025-02-11 15h52.00.114992 -0800,
stimuli/inverted_faces/faces_stimuli_UpShort.csv,0,0.5,0.5,3,1,0.41,stimuli/inverted_faces/M119.png,stimuli/inverted_faces/M119morph.png,stimuli/inverted_faces/M119.png,2,faces,short,upright,1,0,,,,,,,,,,,,,0,0,0,0,0,5,5,17,,,,,85.1329825000139,,,,,,,,,,,,85.12347830005456,85.1329825000139,85.1329825000139,85.12371950002853,85.12373130000196,upright,85.1329825000139,85.6313889999874,85.62363899999764,85.62366140005179,0.6070219123891399,85.6313889999874,86.23500750004314,86.2233124000486,,,,,,,,,,,,,89.22418530005962,1.2530905970611568,89.23177210008726,90.48460820002947,90.47422039997764,,,,,,,,,,,,,,,,,,,,,86.22332850005478,86.23500750004314,86.23500750004314,86.23500750004314,89.23177210008726,89.23177210008726,89.23177210008726,89.22388860001229,left,0,88.3722368000308,0.14323150005657226,,,,,,,,,,,,,,,,,,,P002,1,2,False,False,False,False,2025-02-11_15h51.37.847,inversion_effect,2024.1.0,None,2025-02-11 15h52.00.114992 -0800,
stimuli/inverted_faces/faces_stimuli_UpShort.csv,0,0.5,0.5,3,1,0.41,stimuli/inverted_faces/M122.png,stimuli/inverted_faces/M122.png,stimuli/inverted_faces/M122morph.png,1,faces,short,upright,1,0,,,,,,,,,,,,,0,0,0,0,0,6,6,8,,,,,90.48460820002947,,,,,,,,,,,,90.47453770006541,90.48460820002947,90.48460820002947,90.47481970000081,90.47483329998795,upright,90.48460820002947,90.98195739998482,90.97454850003123,90.97456990007777,0.6823480653668786,90.98195739998482,91.66137370001525,91.64940039999783,,,,,,,,,,,,,94.65009430004284,1.064807634158473,94.65757670009043,95.71913009998389,95.70838990004268,,,,,,,,,,,,,,,,,,,,,91.6494173000101,91.66137370001525,91.66137370001525,91.66137370001525,94.65757670009043,94.65757670009043,94.65757670009043,94.64977260003798,left,0,92.64352460007649,0.1450442000059411,,,,,,,,,,,,,,,,,,,P002,1,2,False,False,False,False,2025-02-11_15h51.37.847,inversion_effect,2024.1.0,None,2025-02-11 15h52.00.114992 -0800,
stimuli/inverted_faces/faces_stimuli_UpShort.csv,0,0.5,0.5,3,1,0.41,stimuli/inverted_faces/M126.png,stimuli/inverted_faces/M126.png,stimuli/inverted_faces/M126morph.png,1,faces,short,upright,1,0,,,,,,,,,,,,,0,0,0,0,0,7,7,9,,,,,95.71913009998389,,,,,,,,,,,,95.70876589999534,95.71913009998389,95.71913009998389,95.70911769999657,95.70913309999742,upright,95.71913009998389,96.21640899998602,96.20851899997797,96.20854020002298,0.5044370631364818,96.21640899998602,96.71938400005456,96.70811120001599,,,,,,,,,,,,,99.70911210007034,1.272920035344768,99.71654870000202,101.04604610009119,100.97582120005973,,,,,,,,,,,,,,,,,,,,,96.70812710002065,96.71938400005456,96.71938400005456,96.71938400005456,99.71654870000202,99.71654870000202,99.71654870000202,99.70886440004688,right,0,98.5320637000259,0.15139709995128214,,,,,,,,,,,,,,,,,,,P002,1,2,False,False,False,False,2025-02-11_15h51.37.847,inversion_effect,2024.1.0,None,2025-02-11 15h52.00.114992 -0800,
stimuli/inverted_faces/faces_stimuli_UpShort.csv,0,0.5,0.5,3,1,0.41,stimuli/inverted_faces/M22.png,stimuli/inverted_faces/M22morph.png,stimuli/inverted_faces/M22.png,2,faces,short,upright,1,0,,,,,,,,,,,,,0,0,0,0,0,8,8,24,,,,,101.04604610009119,,,,,,,,,,,,100.97617710009217,101.04604610009119,101.04604610009119,100.97648040007334,100.97649430006277,upright,101.04604610009119,101.54196300008334,101.53443950007204,101.53446290001739,0.6030382231074177,101.54196300008334,102.14611189998686,102.1340839000186,,,,,,,,,,,,,105.13524169998709,1.2325574864416495,105.14253299997654,106.37066430004779,106.35966489999555,,,,,,,,,,,,,,,,,,,,,102.13409990002401,102.14611189998686,102.14611189998686,102.14611189998686,105.14253299997654,105.14253299997654,105.14253299997654,105.13484950002749,right,0,102.91563770000357,0.18387260008603334,,,,,,,,,,,,,,,,,,,P002,1,2,False,False,False,False,2025-02-11_15h51.37.847,inversion_effect,2024.1.0,None,2025-02-11 15h52.00.114992 -0800,
stimuli/inverted_faces/faces_stimuli_UpShort.csv,0,0.5,0.5,3,1,0.41,stimuli/inverted_faces/F12.png,stimuli/inverted_faces/F12.png,stimuli/inverted_faces/F12morph.png,1,faces,short,upright,1,0,,,,,,,,,,,,,0,0,0,0,0,9,9,2,,,,,106.37066430004779,,,,,,,,,,,,106.35997450002469,106.37066430004779,106.37066430004779,106.36023510002997,106.3602463999996,upright,106.37066430004779,106.86781229998451,106.8602024000138,106.8602234000573,0.5114090258274935,106.86781229998451,107.38003940007184,107.36818580003455,,,,,,,,,,,,,110.36896100000013,1.2546828423303609,110.37648059998173,111.62807129998691,111.61879610002507,,,,,,,,,,,,,,,,,,,,,107.36820450006053,107.38003940007184,107.38003940007184,107.38003940007184,110.37648059998173,110.37648059998173,110.37648059998173,110.3686757000396,left,0,108.02732890006155,0.1444356000283733,,,,,,,,,,,,,,,,,,,P002,1,2,False,False,False,False,2025-02-11_15h51.37.847,inversion_effect,2024.1.0,None,2025-02-11 15h52.00.114992 -0800,
stimuli/inverted_faces/faces_stimuli_UpShort.csv,0,0.5,0.5,3,1,0.41,stimuli/inverted_faces/M35.png,stimuli/inverted_faces/M35.png,stimuli/inverted_faces/M35morph.png,1,faces,short,upright,1,0,,,,,,,,,,,,,0,0,0,0,0,10,10,13,,,,,111.62807129998691,,,,,,,,,,,,111.61906010005623,111.62807129998691,111.62807129998691,111.61929810000584,111.61930930009112,upright,111.62807129998691,112.11862510000356,112.11096249998081,112.1109856000403,0.6050351542610346,112.11862510000356,112.72121410002,112.71027869998943,,,,,,,,,,,,,115.71155430004,1.1351785669100987,115.71904320002068,116.85887650004588,116.84475350007415,,,,,,,,,,,,,,,,,,,,,112.71029090008233,112.72121410002,112.72121410002,112.72121410002,115.71904320002068,115.71904320002068,115.71904320002068,115.71119050006382,left,0,113.33299680007622,0.13492999994195998,,,,,,,,,,,,,,,,,,,P002,1,2,False,False,False,False,2025-02-11_15h51.37.847,inversion_effect,2024.1.0,None,2025-02-11 15h52.00.114992 -0800,
stimuli/inverted_faces/faces_stimuli_UpShort.csv,0,0.5,0.5,3,1,0.41,stimuli/inverted_faces/F7.png,stimuli/inverted_faces/F7.png,stimuli/inverted_faces/F7morph.png,1,faces,short,upright,1,0,,,,,,,,,,,,,0,0,0,0,0,11,11,6,,,,,116.85887650004588,,,,,,,,,,,,116.84508600004483,116.85887650004588,116.85887650004588,116.8453663000837,116.84537960006855,upright,116.85887650004588,117.35257920005824,117.34519920009188,117.34522600006312,0.6317934833313039,117.35257920005824,117.98185089998879,117.96996310004033,,,,,,,,,,,,,120.97059959999751,1.1300333300933103,120.97807910002302,122.10505770007148,122.09530280006584,,,,,,,,,,,,,,,,,,,,,117.96998170006555,117.98185089998879,117.98185089998879,117.98185089998879,120.97807910002302,120.97807910002302,120.97807910002302,120.97025200002827,left,0,118.5476411000127,0.15197620005346835,,,,,,,,,,,,,,,,,,,P002,1,2,False,False,False,False,2025-02-11_15h51.37.847,inversion_effect,2024.1.0,None,2025-02-11 15h52.00.114992 -0800,
stimuli/inverted_faces/faces_stimuli_UpShort.csv,0,0.5,0.5,3,1,0.41,stimuli/inverted_faces/M21.png,stimuli/inverted_faces/M21.png,stimuli/inverted_faces/M21morph.png,1,faces,short,upright,1,0,,,,,,,,,,,,,0,0,0,0,0,12,12,11,,,,,122.10505770007148,,,,,,,,,,,,122.09562260005623,122.10505770007148,122.10505770007148,122.09588020003866,122.09589210001286,upright,122.10505770007148,122.60360070003662,122.59607480000705,122.59609810006805,0.5815817512621813,122.60360070003662,123.18475640006363,123.1706828000024,,,,,,,,,,,,,126.17153310007416,1.1805373536259216,126.17885230004322,127.35373620002065,127.3463357000146,,,,,,,,,,,,,,,,,,,,,123.17070840008091,123.18475640006363,123.18475640006363,123.18475640006363,126.17885230004322,126.17885230004322,126.17885230004322,126.17120029998478,left,0,123.74816160008777,0.1600768999196589,,,,,,,,,,,,,,,,,,,P002,1,2,False,False,False,False,2025-02-11_15h51.37.847,inversion_effect,2024.1.0,None,2025-02-11 15h52.00.114992 -0800,
stimuli/inverted_faces/faces_stimuli_UpShort.csv,0,0.5,0.5,3,1,0.41,stimuli/inverted_faces/F10.png,stimuli/inverted_faces/F10.png,stimuli/inverted_faces/F10morph.png,1,faces,short,upright,1,0,,,,,,,,,,,,,0,0,0,0,0,13,13,0,,,,,127.35373620002065,,,,,,,,,,,,127.3467189000221,127.35373620002065,127.35373620002065,127.3470234000124,127.34703830000944,upright,127.35373620002065,127.84582400007639,127.83819390006829,127.83821389998775,0.6095981550354819,127.84582400007639,128.45463639998343,128.4462923000101,,,,,,,,,,,,,131.43897160002962,1.0944226104939754,131.44655770005193,132.54240130004473,132.53050130000338,,,,,,,,,,,,,,,,,,,,,128.44630640000105,128.45463639998343,128.45463639998343,128.45463639998343,131.44655770005193,131.44655770005193,131.44655770005193,131.43865850009024,left,0,129.04336810007226,0.16008719999808818,,,,,,,,,,,,,,,,,,,P002,1,2,False,False,False,False,2025-02-11_15h51.37.847,inversion_effect,2024.1.0,None,2025-02-11 15h52.00.114992 -0800,
stimuli/inverted_faces/faces_stimuli_UpShort.csv,0,0.5,0.5,3,1,0.41,stimuli/inverted_faces/F11.png,stimuli/inverted_faces/F11.png,stimuli/inverted_faces/F11morph.png,1,faces,short,upright,1,0,,,,,,,,,,,,,0,0,0,0,0,14,14,1,,,,,132.54240130004473,,,,,,,,,,,,132.53083250008058,132.54240130004473,132.54240130004473,132.53111099998932,132.53112420008983,upright,132.54240130004473,133.03837990004104,133.0305672000395,133.030589699978,0.5509552627408588,133.03837990004104,133.59207210002933,133.5803304000292,,,,,,,,,,,,,136.58146460005082,1.2849347176464474,136.5887773000868,137.87488140002824,137.86446449998766,,,,,,,,,,,,,,,,,,,,,133.5803446000209,133.59207210002933,133.59207210002933,133.59207210002933,136.5887773000868,136.5887773000868,136.5887773000868,136.58110160008073,left,0,134.17225539998617,0.1837957000825554,,,,,,,,,,,,,,,,,,,P002,1,2,False,False,False,False,2025-02-11_15h51.37.847,inversion_effect,2024.1.0,None,2025-02-11 15h52.00.114992 -0800,
stimuli/inverted_faces/faces_stimuli_UpShort.csv,0,0.5,0.5,3,1,0.41,stimuli/inverted_faces/M25.png,stimuli/inverted_faces/M25morph.png,stimuli/inverted_faces/M25.png,2,faces,short,upright,1,0,,,,,,,,,,,,,0,0,0,0,0,15,15,25,,,,,137.87488140002824,,,,,,,,,,,,137.86474440002348,137.87488140002824,137.87488140002824,137.86499800009187,137.86500970006455,upright,137.87488140002824,138.37266560003627,138.36462220002431,138.36464100005105,0.6120196537179378,138.37266560003627,138.98359229997732,138.97264759999234,,,,,,,,,,,,,141.97355500003323,1.0396378433436602,141.98119150009006,143.017108,143.00682760006748,,,,,,,,,,,,,,,,,,,,,138.97265960008372,138.98359229997732,138.98359229997732,138.98359229997732,141.98119150009006,141.98119150009006,141.98119150009006,141.97324880002998,right,0,140.52346490009222,0.20068379992153496,,,,,,,,,,,,,,,,,,,P002,1,2,False,False,False,False,2025-02-11_15h51.37.847,inversion_effect,2024.1.0,None,2025-02-11 15h52.00.114992 -0800,
stimuli/inverted_faces/faces_stimuli_UpShort.csv,0,0.5,0.5,3,1,0.41,stimuli/inverted_faces/F18.png,stimuli/inverted_faces/F18.png,stimuli/inverted_faces/F18morph.png,1,faces,short,upright,1,0,,,,,,,,,,,,,0,0,0,0,0,16,16,5,,,,,143.017108,,,,,,,,,,,,143.00710649997927,143.017108,143.017108,143.00736500008497,143.00737650005613,upright,143.017108,143.5148122999817,143.50691650004592,143.50693320005666,0.6923803157451466,143.5148122999817,144.2027364000678,144.19016480003484,,,,,,,,,,,,,147.19102500006557,1.1371519516807698,147.19861860002857,148.3335435000481,148.3241298000794,,,,,,,,,,,,,,,,,,,,,144.19018010003492,144.2027364000678,144.2027364000678,144.2027364000678,147.19861860002857,147.19861860002857,147.19861860002857,147.1907860999927,left,0,145.05160600005183,0.17596849997062236,,,,,,,,,,,,,,,,,,,P002,1,2,False,False,False,False,2025-02-11_15h51.37.847,inversion_effect,2024.1.0,None,2025-02-11 15h52.00.114992 -0800,
stimuli/inverted_faces/faces_stimuli_UpShort.csv,0,0.5,0.5,3,1,0.41,stimuli/inverted_faces/M131.png,stimuli/inverted_faces/M131morph.png,stimuli/inverted_faces/M131.png,2,faces,short,upright,1,0,,,,,,,,,,,,,0,0,0,0,0,17,17,23,,,,,148.3335435000481,,,,,,,,,,,,148.32438430003822,148.3335435000481,148.3335435000481,148.32462590001523,148.32463719998486,upright,148.3335435000481,148.83216200000606,148.8243885000702,148.82440390007105,0.5068766955473437,148.83216200000606,149.335450100014,149.3243259000592,,,,,,,,,,,,,152.32499720004853,1.2533384369326392,152.3325790000381,153.5842271000147,153.5748839000007,,,,,,,,,,,,,,,,,,,,,149.32434160006233,149.335450100014,149.335450100014,149.335450100014,152.3325790000381,152.3325790000381,152.3325790000381,152.32472520007286,right,0,150.37212200008798,0.1752379999961704,,,,,,,,,,,,,,,,,,,P002,1,2,False,False,False,False,2025-02-11_15h51.37.847,inversion_effect,2024.1.0,None,2025-02-11 15h52.00.114992 -0800,
stimuli/inverted_faces/faces_stimuli_UpShort.csv,0,0.5,0.5,3,1,0.41,stimuli/inverted_faces/M128.png,stimuli/inverted_faces/M128morph.png,stimuli/inverted_faces/M128.png,2,faces,short,upright,1,0,,,,,,,,,,,,,0,0,0,0,0,18,18,21,,,,,153.5842271000147,,,,,,,,,,,,153.57511490001343,153.5842271000147,153.5842271000147,153.57533420005348,153.5753442000132,upright,153.5842271000147,154.08287799998652,154.07492990000173,154.07494309998583,0.6730432944100168,154.08287799998652,154.75277560006361,154.74190460005775,,,,,,,,,,,,,157.7424328000052,1.0300067962564923,157.75009099999443,158.7767840999877,158.76728150004055,,,,,,,,,,,,,,,,,,,,,154.74192020006012,154.75277560006361,154.75277560006361,154.75277560006361,157.75009099999443,157.75009099999443,157.75009099999443,157.74218689999543,right,0,156.1723916999763,0.17494620010256767,,,,,,,,,,,,,,,,,,,P002,1,2,False,False,False,False,2025-02-11_15h51.37.847,inversion_effect,2024.1.0,None,2025-02-11 15h52.00.114992 -0800,
stimuli/inverted_faces/faces_stimuli_UpShort.csv,0,0.5,0.5,3,1,0.41,stimuli/inverted_faces/M130.png,stimuli/inverted_faces/M130morph.png,stimuli/inverted_faces/M130.png,2,faces,short,upright,1,0,,,,,,,,,,,,,0,0,0,0,0,19,19,22,,,,,158.7767840999877,,,,,,,,,,,,158.76751210005023,158.7767840999877,158.7767840999877,158.7677230000263,158.76773120008875,upright,158.7767840999877,159.27544190001208,159.2676027000416,159.26761910005007,0.677474000233123,159.27544190001208,159.95718630007468,159.94336979999207,,,,,,,,,,,,,162.94369009998627,1.0830204117761852,162.95119040005375,164.02625950006768,164.0184433000395,,,,,,,,,,,,,,,,,,,,,159.94339660007972,159.95718630007468,159.95718630007468,159.95718630007468,162.95119040005375,162.95119040005375,162.95119040005375,162.94339710008353,right,0,160.86020470003132,0.18345140002202243,,,,,,,,,,,,,,,,,,,P002,1,2,False,False,False,False,2025-02-11_15h51.37.847,inversion_effect,2024.1.0,None,2025-02-11 15h52.00.114992 -0800,
stimuli/inverted_faces/faces_stimuli_UpShort.csv,0,0.5,0.5,3,1,0.41,stimuli/inverted_faces/M125.png,stimuli/inverted_faces/M125morph.png,stimuli/inverted_faces/M125.png,2,faces,short,upright,1,0,,,,,,,,,,,,,0,0,0,0,0,20,20,19,,,,,164.02625950006768,,,,,,,,,,,,164.01874780002981,164.02625950006768,164.02625950006768,164.01903159997892,164.01904520008247,upright,164.02625950006768,164.51808609999716,164.5102293000091,164.5102513000602,0.5649846853133311,164.51808609999716,165.07822840008885,165.0687767000636,,,,,,,,,,,,,168.0694779000478,1.0276940519023363,168.07702139997855,169.10685129999183,169.09443860000465,,,,,,,,,,,,,,,,,,,,,165.06879910000134,165.07822840008885,165.07822840008885,165.07822840008885,168.07702139997855,168.07702139997855,168.07702139997855,168.06916279997677,right,0,166.07588530005887,0.16824119992088526,,,,,,,,,,,,,,,,,,,P002,1,2,False,False,False,False,2025-02-11_15h51.37.847,inversion_effect,2024.1.0,None,2025-02-11 15h52.00.114992 -0800,
stimuli/inverted_faces/faces_stimuli_UpShort.csv,0,0.5,0.5,3,1,0.41,stimuli/inverted_faces/M32.png,stimuli/inverted_faces/M32.png,stimuli/inverted_faces/M32morph.png,1,faces,short,upright,1,0,,,,,,,,,,,,,0,0,0,0,0,21,21,12,,,,,169.10685129999183,,,,,,,,,,,,169.09478869999293,169.10685129999183,169.10685129999183,169.095114500029,169.09512940002605,upright,169.10685129999183,169.6020893000532,169.59433530003298,169.5943526000483,0.5809972639849595,169.6020893000532,170.18105110002216,170.16946710005868,,,,,,,,,,,,,173.1705532000633,1.0481196644678257,173.17786130006425,174.22325010003988,174.21196320001036,,,,,,,,,,,,,,,,,,,,,170.16950130008627,170.18105110002216,170.18105110002216,170.18105110002216,173.17786130006425,173.17786130006425,173.17786130006425,173.17019970004912,right,0,171.06017630000133,0.17605540005024523,,,,,,,,,,,,,,,,,,,P002,1,2,False,False,False,False,2025-02-11_15h51.37.847,inversion_effect,2024.1.0,None,2025-02-11 15h52.00.114992 -0800,
stimuli/inverted_faces/faces_stimuli_UpShort.csv,0,0.5,0.5,3,1,0.41,stimuli/inverted_faces/M129.png,stimuli/inverted_faces/M129.png,stimuli/inverted_faces/M129morph.png,1,faces,short,upright,1,0,,,,,,,,,,,,,0,0,0,0,0,22,22,10,,,,,174.22325010003988,,,,,,,,,,,,174.21228109998628,174.22325010003988,174.22325010003988,174.21265220001806,174.2126671000151,upright,174.22325010003988,174.7198015000904,174.71221750008408,174.7122381000081,0.6888423268262729,174.7198015000904,175.4078901000321,175.39515860006213,,,,,,,,,,,,,178.39618959999643,1.2646708966991804,178.40353220002726,179.666022600024,179.65412469999865,,,,,,,,,,,,,,,,,,,,,175.39517670008354,175.4078901000321,175.4078901000321,175.4078901000321,178.40353220002726,178.40353220002726,178.40353220002726,178.39584890007973,left,0,176.66035100002773,0.12777609995100647,,,,,,,,,,,,,,,,,,,P002,1,2,False,False,False,False,2025-02-11_15h51.37.847,inversion_effect,2024.1.0,None,2025-02-11 15h52.00.114992 -0800,
stimuli/inverted_faces/faces_stimuli_UpShort.csv,0,0.5,0.5,3,1,0.41,stimuli/inverted_faces/F13.png,stimuli/inverted_faces/F13.png,stimuli/inverted_faces/F13morph.png,1,faces,short,upright,1,0,,,,,,,,,,,,,0,0,0,0,0,23,23,3,,,,,179.666022600024,,,,,,,,,,,,179.6543939000694,179.666022600024,179.666022600024,179.65466180001386,179.65468720009085,upright,179.666022600024,180.16185390006285,180.15388340002391,180.1538942999905,0.6707127774760772,180.16185390006285,180.83442299999297,180.82096240005922,,,,,,,,,,,,,183.82134360005148,1.0459687201778864,183.82903270004317,184.87208930007182,184.86292970005888,,,,,,,,,,,,,,,,,,,,,180.82098020007834,180.83442299999297,180.83442299999297,180.83442299999297,183.82903270004317,183.82903270004317,183.82903270004317,183.8211335000815,left,0,181.49977740005124,0.13596159999724478,,,,,,,,,,,,,,,,,,,P002,1,2,False,False,False,False,2025-02-11_15h51.37.847,inversion_effect,2024.1.0,None,2025-02-11 15h52.00.114992 -0800,
stimuli/inverted_faces/faces_stimuli_UpShort.csv,0,0.5,0.5,3,1,0.41,stimuli/inverted_faces/F21.png,stimuli/inverted_faces/F21morph.png,stimuli/inverted_faces/F21.png,2,faces,short,upright,1,0,,,,,,,,,,,,,0,0,0,0,0,24,24,15,,,,,184.87208930007182,,,,,,,,,,,,184.8631586000556,184.87208930007182,184.87208930007182,184.8633439000696,184.8633527000202,upright,184.87208930007182,185.36286170000676,185.35539250005968,185.35541319998447,0.6466072427676015,185.36286170000676,186.00911009998526,185.99688510003034,,,,,,,,,,,,,188.99768170004245,1.0987991087286322,189.0053665000014,190.10117789998185,190.08951850002632,,,,,,,,,,,,,,,,,,,,,185.99690420005936,186.00911009998526,186.00911009998526,186.00911009998526,189.0053665000014,189.0053665000014,189.0053665000014,188.9973429000238,left,0,187.33196720003616,0.13717350002843887,,,,,,,,,,,,,,,,,,,P002,1,2,False,False,False,False,2025-02-11_15h51.37.847,inversion_effect,2024.1.0,None,2025-02-11 15h52.00.114992 -0800,
stimuli/inverted_faces/faces_stimuli_UpShort.csv,0,0.5,0.5,3,1,0.41,stimuli/inverted_faces/M28.png,stimuli/inverted_faces/M28morph.png,stimuli/inverted_faces/M28.png,2,faces,short,upright,1,0,,,,,,,,,,,,,0,0,0,0,0,25,25,26,,,,,190.10117789998185,,,,,,,,,,,,190.08991460001562,190.10117789998185,190.10117789998185,190.09034590004012,190.09036180004478,upright,190.10117789998185,190.59709350008052,190.589782700059,190.58981180004776,0.5595163424161321,190.59709350008052,191.15106750000268,191.13952970004175,,,,,,,,,,,,,194.14043050003238,1.0214127508359792,194.147592500085,195.16686290001962,195.15645640005823,,,,,,,,,,,,,,,,,,,,,191.13954970007762,191.15106750000268,191.15106750000268,191.15106750000268,194.147592500085,194.147592500085,194.147592500085,194.14003440004308,left,0,191.95599669998046,0.13597930001560599,,,,,,,,,,,,,,,,,,,P002,1,2,False,False,False,False,2025-02-11_15h51.37.847,inversion_effect,2024.1.0,None,2025-02-11 15h52.00.114992 -0800,
stimuli/inverted_faces/faces_stimuli_UpShort.csv,0,0.5,0.5,3,1,0.41,stimuli/inverted_faces/F16.png,stimuli/inverted_faces/F16morph.png,stimuli/inverted_faces/F16.png,2,faces,short,upright,1,0,,,,,,,,,,,,,0,0,0,0,0,26,26,14,,,,,195.16686290001962,,,,,,,,,,,,195.15677190001588,195.16686290001962,195.16686290001962,195.15701860003173,195.15703050000593,upright,195.16686290001962,195.66453250008635,195.65690000005998,195.65692159999162,0.5514579615505091,195.66453250008635,196.21868520008866,196.2066667000763,,,,,,,,,,,,,199.20741440006532,1.2087253304484251,199.21499880007468,200.41698460001498,200.4071100000292,,,,,,,,,,,,,,,,,,,,,196.20668730000034,196.21868520008866,196.21868520008866,196.21868520008866,199.21499880007468,199.21499880007468,199.21499880007468,199.20714010007214,right,0,197.04356160003226,0.14396370004396886,,,,,,,,,,,,,,,,,,,P002,1,2,False,False,False,False,2025-02-11_15h51.37.847,inversion_effect,2024.1.0,None,2025-02-11 15h52.00.114992 -0800,
stimuli/inverted_faces/faces_stimuli_UpShort.csv,0,0.5,0.5,3,1,0.41,stimuli/inverted_faces/M127.png,stimuli/inverted_faces/M127morph.png,stimuli/inverted_faces/M127.png,2,faces,short,upright,1,0,,,,,,,,,,,,,0,0,0,0,0,27,27,20,,,,,200.41698460001498,,,,,,,,,,,,200.4073618000839,200.41698460001498,200.41698460001498,200.4075980000198,200.4076090999879,upright,200.41698460001498,200.914949900005,200.90743910009041,200.90746070002206,0.5398372628720395,200.914949900005,201.45178320002742,201.44049569999333,,,,,,,,,,,,,204.44133780000266,1.17132954986544,204.448865900049,205.64242639997974,205.60788160003722,,,,,,,,,,,,,,,,,,,,,201.44051230000332,201.45178320002742,201.45178320002742,201.45178320002742,204.448865900049,204.448865900049,204.448865900049,204.4410632000072,right,0,202.26771570008714,0.14400380000006407,,,,,,,,,,,,,,,,,,,P002,1,2,False,False,False,False,2025-02-11_15h51.37.847,inversion_effect,2024.1.0,None,2025-02-11 15h52.00.114992 -0800,
stimuli/inverted_faces/faces_stimuli_InvShort.csv,0,0.5,0.5,3,1,0.41,stimuli/inverted_faces/M21.png,stimuli/inverted_faces/M21morph.png,stimuli/inverted_faces/M21.png,2,faces,short,inverted,0,1,,,,,,,,,,,,,0,1,1,1,,,,,0,0,0,25,207.63441669999156,,,,,,,,,,,,207.62930800009053,207.63441669999156,207.63441669999156,207.62957099999767,,inverted,,,,208.1253413000377,0.5386498240456863,208.13295060000382,208.6686960000079,208.65854480001144,,,,,,,,,,,,,211.65962030005176,1.1067198471309099,211.6668555000797,212.76667939999606,212.759128900012,207.62957840005402,207.63441669999156,208.13295060000382,208.1253181999782,,,,,,,,,,,,,,,,,,,,,,,,,,,,,205.63937490002718,205.64242639997974,207.61625080008525,208.65856630005874,208.6686960000079,208.6686960000079,208.6686960000079,211.6668555000797,211.6668555000797,211.6668555000797,211.65913210005965,left,0,209.61167150002439,0.12904060003347695,,,,P002,1,2,False,False,False,False,2025-02-11_15h51.37.847,inversion_effect,2024.1.0,None,2025-02-11 15h52.00.114992 -0800,
stimuli/inverted_faces/faces_stimuli_InvShort.csv,0,0.5,0.5,3,1,0.41,stimuli/inverted_faces/M32.png,stimuli/inverted_faces/M32morph.png,stimuli/inverted_faces/M32.png,2,faces,short,inverted,0,1,,,,,,,,,,,,,0,1,1,1,,,,,0,1,1,27,212.76667939999606,,,,,,,,,,,,212.75941850000527,212.76667939999606,212.76667939999606,212.75969850004185,,inverted,,,,213.2512235000031,0.5363754880046704,213.25883280008566,213.79308010009117,213.78418640000746,,,,,,,,,,,,,216.77645330002997,1.1911380216650471,216.78401790000498,217.96737109997775,217.95959069998935,212.75971160002518,212.76667939999606,213.25883280008566,213.25120190007146,,,,,,,,,,,,,,,,,,,,,,,,,,,,,,,,213.7842052000342,213.79308010009117,213.79308010009117,213.79308010009117,216.78401790000498,216.78401790000498,216.78401790000498,216.77619160001632,right,0,214.8355066999793,0.15207480010576546,,,,P002,1,2,False,False,False,False,2025-02-11_15h51.37.847,inversion_effect,2024.1.0,None,2025-02-11 15h52.00.114992 -0800,
stimuli/inverted_faces/faces_stimuli_InvShort.csv,0,0.5,0.5,3,1,0.41,stimuli/inverted_faces/M131.png,stimuli/inverted_faces/M131.png,stimuli/inverted_faces/M131morph.png,1,faces,short,inverted,0,1,,,,,,,,,,,,,0,1,1,1,,,,,0,2,2,8,217.96737109997775,,,,,,,,,,,,217.9598360999953,217.96737109997775,217.96737109997775,217.960073400056,,inverted,,,,218.4521201000316,0.6248344936836191,218.45939700002782,219.0768283000216,219.06791109999176,,,,,,,,,,,,,222.06097730004694,1.0677022894711832,222.06825920008123,223.12642500002403,223.11895760009065,217.96008380001877,217.96737109997775,218.45939700002782,218.45209720009007,,,,,,,,,,,,,,,,,,,,,,,,,,,,,,,,219.06792220007628,219.0768283000216,219.0768283000216,219.0768283000216,222.06825920008123,222.06825920008123,222.06825920008123,222.06056480004918,left,0,220.44387860002462,0.15189069998450577,,,,P002,1,2,False,False,False,False,2025-02-11_15h51.37.847,inversion_effect,2024.1.0,None,2025-02-11 15h52.00.114992 -0800,
stimuli/inverted_faces/faces_stimuli_InvShort.csv,0,0.5,0.5,3,1,0.41,stimuli/inverted_faces/F7.png,stimuli/inverted_faces/F7morph.png,stimuli/inverted_faces/F7.png,2,faces,short,inverted,0,1,,,,,,,,,,,,,0,1,1,1,,,,,0,3,3,19,223.12642500002403,,,,,,,,,,,,223.11925410002004,223.12642500002403,223.12642500002403,223.11956720007583,,inverted,,,,223.61107139999513,0.6061699121326908,223.61851230007596,224.2196726000402,224.21079330006614,,,,,,,,,,,,,227.2032862000633,1.0518014385311343,227.21064730000217,228.2605469999835,228.25302549998742,223.1195789000485,223.12642500002403,223.61851230007596,223.61104860005435,,,,,,,,,,,,,,,,,,,,,,,,,,,,,,,,224.21081339998636,224.2196726000402,224.2196726000402,224.2196726000402,227.21064730000217,227.21064730000217,227.21064730000217,227.20294820005074,left,0,224.89149700000416,0.13601310004014522,,,,P002,1,2,False,False,False,False,2025-02-11_15h51.37.847,inversion_effect,2024.1.0,None,2025-02-11 15h52.00.114992 -0800,
stimuli/inverted_faces/faces_stimuli_InvShort.csv,0,0.5,0.5,3,1,0.41,stimuli/inverted_faces/M125.png,stimuli/inverted_faces/M125morph.png,stimuli/inverted_faces/M125.png,2,faces,short,inverted,0,1,,,,,,,,,,,,,0,1,1,1,,,,,0,4,4,21,228.2605469999835,,,,,,,,,,,,228.25334549997933,228.2605469999835,228.2605469999835,228.25362880004104,,inverted,,,,228.74506710004061,0.6921281090684774,228.75275660003535,229.4369399000425,229.4281067000702,,,,,,,,,,,,,232.4210688000312,1.1521961394570674,232.42824440007098,233.57812000007834,233.57052629999816,228.2536421000259,228.2605469999835,228.75275660003535,228.7450475000078,,,,,,,,,,,,,,,,,,,,,,,,,,,,,,,,229.42812450008933,229.4369399000425,229.4369399000425,229.4369399000425,232.42824440007098,232.42824440007098,232.42824440007098,232.42062500002794,right,0,230.56407920003403,0.13607739994768053,,,,P002,1,2,False,False,False,False,2025-02-11_15h51.37.847,inversion_effect,2024.1.0,None,2025-02-11 15h52.00.114992 -0800,
stimuli/inverted_faces/faces_stimuli_InvShort.csv,0,0.5,0.5,3,1,0.41,stimuli/inverted_faces/M25.png,stimuli/inverted_faces/M25.png,stimuli/inverted_faces/M25morph.png,1,faces,short,inverted,0,1,,,,,,,,,,,,,0,1,1,1,,,,,0,5,5,10,233.57812000007834,,,,,,,,,,,,233.5708601999795,233.57812000007834,233.57812000007834,233.57118349999655,,inverted,,,,234.0627867000876,0.5098713266866172,234.07003960001748,234.57881830004044,234.57048680004664,,,,,,,,,,,,,237.56286409997847,1.0772887748922926,237.57069090008736,238.64531070005614,238.6377001000801,233.57126370002516,233.57812000007834,234.07003960001748,234.06276320002507,,,,,,,,,,,,,,,,,,,,,,,,,,,,,,,,234.57050300005358,234.57881830004044,234.57881830004044,234.57881830004044,237.57069090008736,237.57069090008736,237.57069090008736,237.56259750004392,left,0,235.7005810000701,0.14353419991675764,,,,P002,1,2,False,False,False,False,2025-02-11_15h51.37.847,inversion_effect,2024.1.0,None,2025-02-11 15h52.00.114992 -0800,
stimuli/inverted_faces/faces_stimuli_InvShort.csv,0,0.5,0.5,3,1,0.41,stimuli/inverted_faces/F13.png,stimuli/inverted_faces/F13morph.png,stimuli/inverted_faces/F13.png,2,faces,short,inverted,0,1,,,,,,,,,,,,,0,1,1,1,,,,,0,6,6,16,238.64531070005614,,,,,,,,,,,,238.63794530008454,238.64531070005614,238.64531070005614,238.63816249999218,,inverted,,,,239.1295456000371,0.6696875110224582,239.13718660001177,239.80541600007564,239.79645860008895,,,,,,,,,,,,,242.78872660000343,1.1974976361996168,242.79625060001854,243.98780930007342,243.9800377000356,238.6381723000668,238.64531070005614,239.13718660001177,239.12953430006746,,,,,,,,,,,,,,,,,,,,,,,,,,,,,,,,239.79647539998405,239.80541600007564,239.80541600007564,239.80541600007564,242.79625060001854,242.79625060001854,242.79625060001854,242.78842600004282,right,0,241.24406400008593,0.18343089998234063,,,,P002,1,2,False,False,False,False,2025-02-11_15h51.37.847,inversion_effect,2024.1.0,None,2025-02-11 15h52.00.114992 -0800,
stimuli/inverted_faces/faces_stimuli_InvShort.csv,0,0.5,0.5,3,1,0.41,stimuli/inverted_faces/M28.png,stimuli/inverted_faces/M28morph.png,stimuli/inverted_faces/M28.png,2,faces,short,inverted,0,1,,,,,,,,,,,,,0,1,1,1,,,,,0,7,7,26,243.98780930007342,,,,,,,,,,,,243.98028880008496,243.98780930007342,243.98780930007342,243.98050589999184,,inverted,,,,244.47211349999998,0.5917755959477831,244.47986369999126,245.06315170007292,245.05528600001708,,,,,,,,,,,,,248.0475120000774,1.0823316408768746,248.0553004000103,249.13029550004285,249.12257930007763,243.98051520006265,243.98780930007342,244.47986369999126,244.47209689999,,,,,,,,,,,,,,,,,,,,,,,,,,,,,,,,245.0553004000103,245.06315170007292,245.06315170007292,245.06315170007292,248.0553004000103,248.0553004000103,248.0553004000103,248.0472634000471,right,0,245.96386200003326,0.1602955999551341,,,,P002,1,2,False,False,False,False,2025-02-11_15h51.37.847,inversion_effect,2024.1.0,None,2025-02-11 15h52.00.114992 -0800,
stimuli/inverted_faces/faces_stimuli_InvShort.csv,0,0.5,0.5,3,1,0.41,stimuli/inverted_faces/M123.png,stimuli/inverted_faces/M123.png,stimuli/inverted_faces/M123morph.png,1,faces,short,inverted,0,1,,,,,,,,,,,,,0,1,1,1,,,,,0,8,8,5,249.13029550004285,,,,,,,,,,,,249.12283700006083,249.13029550004285,249.13029550004285,249.1230702000903,,inverted,,,,249.61492359999102,0.582109081613766,249.6224895999767,250.19721800007392,250.1892559999833,,,,,,,,,,,,,253.18238260003272,1.296075694312456,253.18960290006362,254.48186170007102,254.4738930000458,249.12308040005155,249.13029550004285,249.6224895999767,249.61490080005024,,,,,,,,,,,,,,,,,,,,,,,,,,,,,,,,250.18926910008304,250.19721800007392,250.19721800007392,250.19721800007392,253.18960290006362,253.18960290006362,253.18960290006362,253.18203220004216,left,0,251.14836800005287,0.15156659996137023,,,,P002,1,2,False,False,False,False,2025-02-11_15h51.37.847,inversion_effect,2024.1.0,None,2025-02-11 15h52.00.114992 -0800,
stimuli/inverted_faces/faces_stimuli_InvShort.csv,0,0.5,0.5,3,1,0.41,stimuli/inverted_faces/F12.png,stimuli/inverted_faces/F12morph.png,stimuli/inverted_faces/F12.png,2,faces,short,inverted,0,1,,,,,,,,,,,,,0,1,1,1,,,,,0,9,9,15,254.48186170007102,,,,,,,,,,,,254.47420360008255,254.48186170007102,254.48186170007102,254.47452000004705,,inverted,,,,254.96591840009205,0.5731400973755575,254.97317740006838,255.54150569997728,255.53212099999655,,,,,,,,,,,,,258.52480840007775,1.0060970524794026,258.53207309998106,259.5327632999979,259.52474730007816,254.47453440004028,254.48186170007102,254.97317740006838,254.965896800044,,,,,,,,,,,,,,,,,,,,,,,,,,,,,,,,255.5321413000347,255.54150569997728,255.54150569997728,255.54150569997728,258.53207309998106,258.53207309998106,258.53207309998106,258.5244660000317,left,0,256.2599208999891,0.16799149999860674,,,,P002,1,2,False,False,False,False,2025-02-11_15h51.37.847,inversion_effect,2024.1.0,None,2025-02-11 15h52.00.114992 -0800,
stimuli/inverted_faces/faces_stimuli_InvShort.csv,0,0.5,0.5,3,1,0.41,stimuli/inverted_faces/M22.png,stimuli/inverted_faces/M22.png,stimuli/inverted_faces/M22morph.png,1,faces,short,inverted,0,1,,,,,,,,,,,,,0,1,1,1,,,,,0,10,10,9,259.5327632999979,,,,,,,,,,,,259.5250999000855,259.5327632999979,259.5327632999979,259.5254129000241,,inverted,,,,260.0162871000357,0.6244656670507045,260.02415509999264,260.6424735999899,260.63311709999107,,,,,,,,,,,,,263.63404989999253,1.0689979730682793,263.64094850001857,264.70771830005106,264.70006910001393,259.5254269000143,259.5327632999979,260.02415509999264,260.0162672000006,,,,,,,,,,,,,,,,,,,,,,,,,,,,,,,,260.6331365000224,260.6424735999899,260.6424735999899,260.6424735999899,263.64094850001857,263.64094850001857,263.64094850001857,263.6337175000226,right,0,261.9237516000867,0.14448549994267523,,,,P002,1,2,False,False,False,False,2025-02-11_15h51.37.847,inversion_effect,2024.1.0,None,2025-02-11 15h52.00.114992 -0800,
stimuli/inverted_faces/faces_stimuli_InvShort.csv,0,0.5,0.5,3,1,0.41,stimuli/inverted_faces/F10.png,stimuli/inverted_faces/F10.png,stimuli/inverted_faces/F10morph.png,1,faces,short,inverted,0,1,,,,,,,,,,,,,0,1,1,1,,,,,0,11,11,13,264.70771830005106,,,,,,,,,,,,264.7003377000801,264.70771830005106,264.70771830005106,264.7005771000404,,inverted,,,,265.1924569000257,0.5033116070490946,265.1999523000559,265.70245350000914,265.6920869000023,,,,,,,,,,,,,268.6930175999878,1.0033902725125117,268.7004310999764,269.70050010003615,269.69272250006907,264.70060149999335,264.70771830005106,265.1999523000559,265.1924344000872,,,,,,,,,,,,,,,,,,,,,,,,,,,,,,,,265.6921072000405,265.70245350000914,265.70245350000914,265.70245350000914,268.7004310999764,268.7004310999764,268.7004310999764,268.69265219999943,right,0,266.73153220000677,0.15991919999942183,,,,P002,1,2,False,False,False,False,2025-02-11_15h51.37.847,inversion_effect,2024.1.0,None,2025-02-11 15h52.00.114992 -0800,
stimuli/inverted_faces/faces_stimuli_InvShort.csv,0,0.5,0.5,3,1,0.41,stimuli/inverted_faces/F11.png,stimuli/inverted_faces/F11morph.png,stimuli/inverted_faces/F11.png,2,faces,short,inverted,0,1,,,,,,,,,,,,,0,1,1,1,,,,,0,12,12,14,269.70050010003615,,,,,,,,,,,,269.69304799998645,269.70050010003615,269.70050010003615,269.693350900081,,inverted,,,,270.18458200001623,0.5944900721947299,270.19237579999026,270.7857805000385,270.7763482000446,,,,,,,,,,,,,273.77703340002336,1.219432272323438,273.78441700001713,275.00088220008183,274.992964199977,269.69336440006737,269.70050010003615,270.19237579999026,270.18456179997884,,,,,,,,,,,,,,,,,,,,,,,,,,,,,,,,270.77637079998385,270.7857805000385,270.7857805000385,270.7857805000385,273.78441700001713,273.78441700001713,273.78441700001713,273.77670789998956,right,0,271.9875776000554,0.15200160001404583,,,,P002,1,2,False,False,False,False,2025-02-11_15h51.37.847,inversion_effect,2024.1.0,None,2025-02-11 15h52.00.114992 -0800,
stimuli/inverted_faces/faces_stimuli_InvShort.csv,0,0.5,0.5,3,1,0.41,stimuli/inverted_faces/M130.png,stimuli/inverted_faces/M130morph.png,stimuli/inverted_faces/M130.png,2,faces,short,inverted,0,1,,,,,,,,,,,,,0,1,1,1,,,,,0,13,13,24,275.00088220008183,,,,,,,,,,,,274.993163999985,275.00088220008183,275.00088220008183,274.99335760006215,,inverted,,,,275.4851667000912,0.6220459698422037,275.4930033000419,276.11102630000096,276.101531399996,,,,,,,,,,,,,279.0940970000811,1.0619057660940119,279.10163480008487,280.16032860009,280.15270840004086,274.99336850002874,275.00088220008183,275.4930033000419,275.48514870007057,,,,,,,,,,,,,,,,,,,,,,,,,,,,,,,,276.1015473000007,276.11102630000096,276.11102630000096,276.11102630000096,279.10163480008487,279.10163480008487,279.10163480008487,279.09382389998063,right,0,278.1965818000026,0.13534250005614012,,,,P002,1,2,False,False,False,False,2025-02-11_15h51.37.847,inversion_effect,2024.1.0,None,2025-02-11 15h52.00.114992 -0800,
stimuli/inverted_faces/faces_stimuli_InvShort.csv,0,0.5,0.5,3,1,0.41,stimuli/inverted_faces/M127.png,stimuli/inverted_faces/M127morph.png,stimuli/inverted_faces/M127.png,2,faces,short,inverted,0,1,,,,,,,,,,,,,0,1,1,1,,,,,0,14,14,23,280.16032860009,,,,,,,,,,,,280.15302430000156,280.16032860009,280.16032860009,280.1534578000428,,inverted,,,,280.64420640002936,0.5384947225603716,280.65186139999423,281.1850701000076,281.17726000002585,,,,,,,,,,,,,284.1697719000513,1.154010753276679,284.17736040009186,285.32730630005244,285.31987960007973,280.1534767000703,280.16032860009,280.65186139999423,280.64418940001633,,,,,,,,,,,,,,,,,,,,,,,,,,,,,,,,281.1772751000244,281.1850701000076,281.1850701000076,281.1850701000076,284.17736040009186,284.17736040009186,284.17736040009186,284.16952280001715,right,0,282.5881155000534,0.14406269998289645,,,,P002,1,2,False,False,False,False,2025-02-11_15h51.37.847,inversion_effect,2024.1.0,None,2025-02-11 15h52.00.114992 -0800,
stimuli/inverted_faces/faces_stimuli_InvShort.csv,0,0.5,0.5,3,1,0.41,stimuli/inverted_faces/M121.png,stimuli/inverted_faces/M121.png,stimuli/inverted_faces/M121morph.png,1,faces,short,inverted,0,1,,,,,,,,,,,,,0,1,1,1,,,,,0,15,15,4,285.32730630005244,,,,,,,,,,,,285.3201337000355,285.32730630005244,285.32730630005244,285.32049200008623,,inverted,,,,285.8117437000619,0.5169563815083928,285.8193829000229,286.32797690003645,286.3198333000764,,,,,,,,,,,,,289.31241480004974,1.026261730196764,289.31989230006,290.3368801000761,290.32895570003893,285.32050360005815,285.32730630005244,285.8193829000229,285.81172290001996,,,,,,,,,,,,,,,,,,,,,,,,,,,,,,,,286.3198496000841,286.32797690003645,286.32797690003645,286.32797690003645,289.31989230006,289.31989230006,289.31989230006,289.31208589999005,left,0,287.3958362999838,0.15195690002292395,,,,P002,1,2,False,False,False,False,2025-02-11_15h51.37.847,inversion_effect,2024.1.0,None,2025-02-11 15h52.00.114992 -0800,
stimuli/inverted_faces/faces_stimuli_InvShort.csv,0,0.5,0.5,3,1,0.41,stimuli/inverted_faces/F21.png,stimuli/inverted_faces/F21.png,stimuli/inverted_faces/F21morph.png,1,faces,short,inverted,0,1,,,,,,,,,,,,,0,1,1,1,,,,,0,16,16,1,290.3368801000761,,,,,,,,,,,,290.32926510006655,290.3368801000761,290.3368801000761,290.329525200068,,inverted,,,,290.8213493999792,0.6161767273389699,290.82880090002436,291.4405048000626,291.42938079999294,,,,,,,,,,,,,294.4299514000304,1.1187392281573376,294.43738730007317,295.5543147000717,295.546612199978,290.3295371000422,290.3368801000761,290.82880090002436,290.8213264000369,,,,,,,,,,,,,,,,,,,,,,,,,,,,,,,,291.4294009000296,291.4405048000626,291.4405048000626,291.4405048000626,294.43738730007317,294.43738730007317,294.43738730007317,294.4296345000621,left,0,292.25994300004095,0.15203739993739873,,,,P002,1,2,False,False,False,False,2025-02-11_15h51.37.847,inversion_effect,2024.1.0,None,2025-02-11 15h52.00.114992 -0800,
stimuli/inverted_faces/faces_stimuli_InvShort.csv,0,0.5,0.5,3,1,0.41,stimuli/inverted_faces/F9.png,stimuli/inverted_faces/F9.png,stimuli/inverted_faces/F9morph.png,1,faces,short,inverted,0,1,,,,,,,,,,,,,0,1,1,1,,,,,0,17,17,2,295.5543147000717,,,,,,,,,,,,295.54699080006685,295.5543147000717,295.5543147000717,295.54731270007323,,inverted,,,,296.03853740007617,0.5002122478183519,296.04610730009153,296.5388429000741,296.5298064000672,,,,,,,,,,,,,299.52279650000855,1.0230761817115155,299.52997200004756,300.5473647000035,300.5390613999916,295.54732690006495,295.5543147000717,296.04610730009153,296.03851340000983,,,,,,,,,,,,,,,,,,,,,,,,,,,,,,,,296.52982460008934,296.5388429000741,296.5388429000741,296.5388429000741,299.52997200004756,299.52997200004756,299.52997200004756,299.52238820004277,right,0,297.21171120007057,0.16017619997728616,,,,P002,1,2,False,False,False,False,2025-02-11_15h51.37.847,inversion_effect,2024.1.0,None,2025-02-11 15h52.00.114992 -0800,
stimuli/inverted_faces/faces_stimuli_InvShort.csv,0,0.5,0.5,3,1,0.41,stimuli/inverted_faces/M126.png,stimuli/inverted_faces/M126morph.png,stimuli/inverted_faces/M126.png,2,faces,short,inverted,0,1,,,,,,,,,,,,,0,1,1,1,,,,,0,18,18,22,300.5473647000035,,,,,,,,,,,,300.5394193000393,300.5473647000035,300.5473647000035,300.53969700005837,,inverted,,,,301.03095960000064,0.5456187291247495,301.0385595000116,301.58187980006915,301.57278250006493,,,,,,,,,,,,,304.5651820000494,1.2498387808458256,304.5723123999778,305.8138748999918,305.80608870007563,300.5397093000356,300.5473647000035,301.0385595000116,301.03093760006595,,,,,,,,,,,,,,,,,,,,,,,,,,,,,,,,301.5728066000156,301.58187980006915,301.58187980006915,301.58187980006915,304.5723123999778,304.5723123999778,304.5723123999778,304.56476710003335,right,0,302.17173589998856,0.1681971000507474,,,,P002,1,2,False,False,False,False,2025-02-11_15h51.37.847,inversion_effect,2024.1.0,None,2025-02-11 15h52.00.114992 -0800,
stimuli/inverted_faces/faces_stimuli_InvShort.csv,0,0.5,0.5,3,1,0.41,stimuli/inverted_faces/M129.png,stimuli/inverted_faces/M129.png,stimuli/inverted_faces/M129morph.png,1,faces,short,inverted,0,1,,,,,,,,,,,,,0,1,1,1,,,,,0,19,19,7,305.8138748999918,,,,,,,,,,,,305.8063360999804,305.8138748999918,305.8138748999918,305.8066339000361,,inverted,,,,306.2989675999852,0.5008767709150654,306.30601160007063,306.79878820001613,306.7900108000031,,,,,,,,,,,,,309.78243750007823,1.1082119693158223,309.78987400000915,310.88979819999076,310.88246130000334,305.8066487000324,305.8138748999918,306.30601160007063,306.29893869999796,,,,,,,,,,,,,,,,,,,,,,,,,,,,,,,,306.7900297000306,306.79878820001613,306.79878820001613,306.79878820001613,309.78987400000915,309.78987400000915,309.78987400000915,309.78212620003615,right,0,307.5239243999822,0.15195430000312626,,,,P002,1,2,False,False,False,False,2025-02-11_15h51.37.847,inversion_effect,2024.1.0,None,2025-02-11 15h52.00.114992 -0800,
stimuli/inverted_faces/faces_stimuli_InvShort.csv,0,0.5,0.5,3,1,0.41,stimuli/inverted_faces/M122.png,stimuli/inverted_faces/M122morph.png,stimuli/inverted_faces/M122.png,2,faces,short,inverted,0,1,,,,,,,,,,,,,0,1,1,1,,,,,0,20,20,20,310.88979819999076,,,,,,,,,,,,310.8827913000714,310.88979819999076,310.88979819999076,310.88310009997804,,inverted,,,,311.3746099000564,0.6053646399078907,311.38187889999244,311.98393370001577,311.9740153000457,,,,,,,,,,,,,314.97513470007107,1.1074807033055307,314.98210530006327,316.0822834999999,316.07467400003225,310.88311280007474,310.88979819999076,311.38187889999244,311.3745838000905,,,,,,,,,,,,,,,,,,,,,,,,,,,,,,,,311.9740358000854,311.98393370001577,311.98393370001577,311.98393370001577,314.98210530006327,314.98210530006327,314.98210530006327,314.9747286000056,right,0,312.54032420006115,0.16796939994674176,,,,P002,1,2,False,False,False,False,2025-02-11_15h51.37.847,inversion_effect,2024.1.0,None,2025-02-11 15h52.00.114992 -0800,
stimuli/inverted_faces/faces_stimuli_InvShort.csv,0,0.5,0.5,3,1,0.41,stimuli/inverted_faces/F16.png,stimuli/inverted_faces/F16.png,stimuli/inverted_faces/F16morph.png,1,faces,short,inverted,0,1,,,,,,,,,,,,,0,1,1,1,,,,,0,21,21,0,316.0822834999999,,,,,,,,,,,,316.07503359997645,316.0822834999999,316.0822834999999,316.0754015999846,,inverted,,,,316.56626120000146,0.5841504393146544,316.57395270001143,317.151907499996,317.1416191000026,,,,,,,,,,,,,320.142079000012,1.1423785478364232,320.1495047999779,321.28333050000947,321.2755378000438,316.07541599997785,316.0822834999999,316.57395270001143,316.5662431999808,,,,,,,,,,,,,,,,,,,,,,,,,,,,,,,,317.14164400007576,317.151907499996,317.151907499996,317.151907499996,320.1495047999779,320.1495047999779,320.1495047999779,320.14175339997746,right,0,317.83623540005647,0.16733620001468807,,,,P002,1,2,False,False,False,False,2025-02-11_15h51.37.847,inversion_effect,2024.1.0,None,2025-02-11 15h52.00.114992 -0800,
stimuli/inverted_faces/faces_stimuli_InvShort.csv,0,0.5,0.5,3,1,0.41,stimuli/inverted_faces/M128.png,stimuli/inverted_faces/M128.png,stimuli/inverted_faces/M128morph.png,1,faces,short,inverted,0,1,,,,,,,,,,,,,0,1,1,1,,,,,0,22,22,6,321.28333050000947,,,,,,,,,,,,321.2759340000339,321.28333050000947,321.28333050000947,321.2762842000229,,inverted,,,,321.7672263000859,0.5267269317715236,321.77485859999433,322.30112110008486,322.29190660000313,,,,,,,,,,,,,325.28458380000666,1.0635648532676585,325.2919334000908,326.3502823000308,326.34251009998843,321.27630070003215,321.28333050000947,321.77485859999433,321.7672040000325,,,,,,,,,,,,,,,,,,,,,,,,,,,,,,,,322.2919258000329,322.30112110008486,322.30112110008486,322.30112110008486,325.2919334000908,325.2919334000908,325.2919334000908,325.2842481000116,right,0,323.1722457000287,0.1362203999888152,,,,P002,1,2,False,False,False,False,2025-02-11_15h51.37.847,inversion_effect,2024.1.0,None,2025-02-11 15h52.00.114992 -0800,
stimuli/inverted_faces/faces_stimuli_InvShort.csv,0,0.5,0.5,3,1,0.41,stimuli/inverted_faces/M119.png,stimuli/inverted_faces/M119.png,stimuli/inverted_faces/M119morph.png,1,faces,short,inverted,0,1,,,,,,,,,,,,,0,1,1,1,,,,,0,23,23,3,326.3502823000308,,,,,,,,,,,,326.3428043000167,326.3502823000308,326.3502823000308,326.34307429997716,,inverted,,,,326.83456280000973,0.6316307183923326,326.8422874000389,327.4679448000388,327.4592367000878,,,,,,,,,,,,,330.4520715000108,1.2275762572573472,330.45940180006437,331.6847539000446,331.676784100011,326.3430864000693,326.3502823000308,326.8422874000389,326.8345417000819,,,,,,,,,,,,,,,,,,,,,,,,,,,,,,,,327.45924920006655,327.4679448000388,327.4679448000388,327.4679448000388,330.45940180006437,330.45940180006437,330.45940180006437,330.4516982000787,left,0,328.82812100008596,0.12798150000162423,,,,P002,1,2,False,False,False,False,2025-02-11_15h51.37.847,inversion_effect,2024.1.0,None,2025-02-11 15h52.00.114992 -0800,
stimuli/inverted_faces/faces_stimuli_InvShort.csv,0,0.5,0.5,3,1,0.41,stimuli/inverted_faces/M35.png,stimuli/inverted_faces/M35.png,stimuli/inverted_faces/M35morph.png,1,faces,short,inverted,0,1,,,,,,,,,,,,,0,1,1,1,,,,,0,24,24,12,331.6847539000446,,,,,,,,,,,,331.67714070004877,331.6847539000446,331.6847539000446,331.6774209000869,,inverted,,,,332.1689561000094,0.6145473052321794,332.17638760001864,332.7859361000592,332.7769688999979,,,,,,,,,,,,,335.7694089000579,1.222449134176352,335.7768242000602,336.99358290003147,336.98576790001243,331.6774338000687,331.6847539000446,332.17638760001864,332.1689326000633,,,,,,,,,,,,,,,,,,,,,,,,,,,,,,,,332.77698680001777,332.7859361000592,332.7859361000592,332.7859361000592,335.7768242000602,335.7768242000602,335.7768242000602,335.7690771999769,left,0,334.03559179999866,0.15203260001726449,,,,P002,1,2,False,False,False,False,2025-02-11_15h51.37.847,inversion_effect,2024.1.0,None,2025-02-11 15h52.00.114992 -0800,
stimuli/inverted_faces/faces_stimuli_InvShort.csv,0,0.5,0.5,3,1,0.41,stimuli/inverted_faces/F18.png,stimuli/inverted_faces/F18morph.png,stimuli/inverted_faces/F18.png,2,faces,short,inverted,0,1,,,,,,,,,,,,,0,1,1,1,,,,,0,25,25,18,336.99358290003147,,,,,,,,,,,,336.98604880005587,336.99358290003147,336.99358290003147,336.98627450002823,,inverted,,,,337.47753370006103,0.6110544971922738,337.48537070001476,338.09467460005544,338.08577020000666,,,,,,,,,,,,,341.0784152999986,1.237585663047582,341.0858738999814,342.32033330004197,342.31189580005594,336.9862843999872,336.99358290003147,337.48537070001476,337.477516700048,,,,,,,,,,,,,,,,,,,,,,,,,,,,,,,,338.08578580000903,338.09467460005544,338.09467460005544,338.09467460005544,341.0858738999814,341.0858738999814,341.0858738999814,341.07809299998917,left,0,339.04386430000886,0.12812260002829134,,,,P002,1,2,False,False,False,False,2025-02-11_15h51.37.847,inversion_effect,2024.1.0,None,2025-02-11 15h52.00.114992 -0800,
stimuli/inverted_faces/faces_stimuli_InvShort.csv,0,0.5,0.5,3,1,0.41,stimuli/inverted_faces/F15.png,stimuli/inverted_faces/F15morph.png,stimuli/inverted_faces/F15.png,2,faces,short,inverted,0,1,,,,,,,,,,,,,0,1,1,1,,,,,0,26,26,17,342.32033330004197,,,,,,,,,,,,342.31225690001156,342.32033330004197,342.32033330004197,342.31261680007447,,inverted,,,,342.80375800002366,0.6237630512246284,342.8114917000057,343.429923000047,343.42048600001726,,,,,,,,,,,,,346.4211759000318,1.177832889626042,346.4286626999965,347.6040408000117,347.59600780007895,342.31263190007303,342.32033330004197,342.8114917000057,342.803737899987,,,,,,,,,,,,,,,,,,,,,,,,,,,,,,,,343.42050800006837,343.429923000047,343.429923000047,343.429923000047,346.4286626999965,346.4286626999965,346.4286626999965,346.42084360006265,right,0,344.8598629999906,0.15195710002444685,,,,P002,1,2,False,False,False,False,2025-02-11_15h51.37.847,inversion_effect,2024.1.0,None,2025-02-11 15h52.00.114992 -0800,
stimuli/inverted_faces/faces_stimuli_InvShort.csv,0,0.5,0.5,3,1,0.41,stimuli/inverted_faces/M31.png,stimuli/inverted_faces/M31.png,stimuli/inverted_faces/M31morph.png,1,faces,short,inverted,0,1,,,,,,,,,,,,,0,1,1,1,,,,,0,27,27,11,347.6040408000117,,,,,,,,,,,,347.59635170002,347.6040408000117,347.6040408000117,347.59666000003926,,inverted,,,,348.0879999999888,0.6562646692246685,348.0957078000065,348.74726329999976,348.73776619997807,,,,,,,,,,,,,351.73886560008395,1.0086586142589768,351.7459264000645,352.78021450003143,352.7385292000836,347.5966739000287,347.6040408000117,348.0957078000065,348.08797490003053,,,,,,,,,,,,,,,,,,,,,,,,,,,,,,,,348.73778670001775,348.74726329999976,348.74726329999976,348.74726329999976,351.7459264000645,351.7459264000645,351.7459264000645,351.7384769000346,right,0,349.82013570005074,0.11994380003307015,,,,P002,1,2,False,False,False,False,2025-02-11_15h51.37.847,inversion_effect,2024.1.0,None,2025-02-11 15h52.00.114992 -0800,
stimuli/inverted_faces/faces_stimuli_InvLong.csv,0,5.0,0.5,3,1,0.41,stimuli/inverted_faces/F9.png,stimuli/inverted_faces/F9morph.png,stimuli/inverted_faces/F9.png,2,faces,long,inverted,0,1,,,,,,,,,,,,,0,2,2,2,,,,,0,0,0,23,354.8205436000135,,,,,,,,,,,,354.8150743000442,354.8205436000135,354.8205436000135,354.8154169000918,,inverted,,,,359.8064264000859,0.6592634790877265,359.8143622999778,360.47397789999377,360.464496999979,,,,,,,,,,,,,363.4652588000754,1.26467388587946,363.4725745000178,364.7309983000159,364.7232887999853,354.8154265000485,354.8205436000135,359.8143622999778,359.8064026000211,,,,,,,,,,,,,,,,,,,,,,,,,,,,,352.7769061999861,352.78021450003143,354.7465594999958,360.46452000003774,360.47397789999377,360.47397789999377,360.47397789999377,363.4725745000178,363.4725745000178,363.4725745000178,363.4648306000745,right,0,361.69205499999225,0.13599790004082024,,,,P002,1,2,False,False,False,False,2025-02-11_15h51.37.847,inversion_effect,2024.1.0,None,2025-02-11 15h52.00.114992 -0800,
stimuli/inverted_faces/faces_stimuli_InvLong.csv,0,5.0,0.5,3,1,0.41,stimuli/inverted_faces/M35.png,stimuli/inverted_faces/M35.png,stimuli/inverted_faces/M35morph.png,1,faces,long,inverted,0,1,,,,,,,,,,,,,0,2,2,2,,,,,0,1,1,5,364.7309983000159,,,,,,,,,,,,364.72354700008873,364.7309983000159,364.7309983000159,364.7238021000521,,inverted,,,,369.71601490001194,0.6577159781166674,369.7236937000416,370.37478359998204,370.3659631999908,,,,,,,,,,,,,373.35833710001316,1.2206144958481784,373.36576720001176,374.58226809999906,374.5747241000645,364.72381340002175,364.7309983000159,369.7236937000416,369.7159952999791,,,,,,,,,,,,,,,,,,,,,,,,,,,,,,,,370.3659823000198,370.37478359998204,370.37478359998204,370.37478359998204,373.36576720001176,373.36576720001176,373.36576720001176,373.3580521000549,right,0,371.59559410007205,0.1365595000097528,,,,P002,1,2,False,False,False,False,2025-02-11_15h51.37.847,inversion_effect,2024.1.0,None,2025-02-11 15h52.00.114992 -0800,
stimuli/inverted_faces/faces_stimuli_InvLong.csv,0,5.0,0.5,3,1,0.41,stimuli/inverted_faces/M122.png,stimuli/inverted_faces/M122morph.png,stimuli/inverted_faces/M122.png,2,faces,long,inverted,0,1,,,,,,,,,,,,,0,2,2,2,,,,,0,2,2,19,374.58226809999906,,,,,,,,,,,,374.57500620000064,374.58226809999906,374.58226809999906,374.5752807999961,,inverted,,,,379.56731810001656,0.5023615077150659,379.5750244000228,380.07655540003907,380.0675211000489,,,,,,,,,,,,,383.0678275000537,1.2238580284907832,383.075515500037,384.2922016000375,384.28460450004786,374.5752928000875,374.58226809999906,379.5750244000228,379.56730110000353,,,,,,,,,,,,,,,,,,,,,,,,,,,,,,,,380.06753750005737,380.07655540003907,380.07655540003907,380.07655540003907,383.075515500037,383.075515500037,383.075515500037,383.0675710000796,right,0,381.25154840003233,0.13604280003346503,,,,P002,1,2,False,False,False,False,2025-02-11_15h51.37.847,inversion_effect,2024.1.0,None,2025-02-11 15h52.00.114992 -0800,
stimuli/inverted_faces/faces_stimuli_InvLong.csv,0,5.0,0.5,3,1,0.41,stimuli/inverted_faces/M125.png,stimuli/inverted_faces/M125morph.png,stimuli/inverted_faces/M125.png,2,faces,long,inverted,0,1,,,,,,,,,,,,,0,2,2,2,,,,,0,3,3,24,384.2922016000375,,,,,,,,,,,,384.2849045000039,384.2922016000375,384.2922016000375,384.28518880007323,,inverted,,,,389.27753329998814,0.6457257935627414,389.2851000999799,389.92858930001967,389.9190358000342,,,,,,,,,,,,,392.9197442000732,1.2523322775790697,392.9270659000613,394.17767660005484,394.16954430006444,384.28520140005276,384.2922016000375,389.2851000999799,389.2775109000504,,,,,,,,,,,,,,,,,,,,,,,,,,,,,,,,389.9190557000693,389.92858930001967,389.92858930001967,389.92858930001967,392.9270659000613,392.9270659000613,392.9270659000613,392.91939729999285,right,0,391.2519200000679,0.1440113999415189,,,,P002,1,2,False,False,False,False,2025-02-11_15h51.37.847,inversion_effect,2024.1.0,None,2025-02-11 15h52.00.114992 -0800,
stimuli/inverted_faces/faces_stimuli_InvLong.csv,0,5.0,0.5,3,1,0.41,stimuli/inverted_faces/M21.png,stimuli/inverted_faces/M21.png,stimuli/inverted_faces/M21morph.png,1,faces,long,inverted,0,1,,,,,,,,,,,,,0,2,2,2,,,,,0,4,4,4,394.17767660005484,,,,,,,,,,,,394.16992490005214,394.17767660005484,394.17767660005484,394.17024570005015,,inverted,,,,399.1621699000243,0.6234082853284312,399.1697891000658,399.78782800002955,399.7787375000771,,,,,,,,,,,,,402.7714208000107,1.099304196915792,402.77858270006254,403.8707164999796,403.8627199000912,394.17025990004186,394.17767660005484,399.1697891000658,399.1621435000561,,,,,,,,,,,,,,,,,,,,,,,,,,,,,,,,399.77875990001485,399.78782800002955,399.78782800002955,399.78782800002955,402.77858270006254,402.77858270006254,402.77858270006254,402.77107630006503,right,0,401.15598240005784,0.17580560001078993,,,,P002,1,2,False,False,False,False,2025-02-11_15h51.37.847,inversion_effect,2024.1.0,None,2025-02-11 15h52.00.114992 -0800,
stimuli/inverted_faces/faces_stimuli_InvLong.csv,0,5.0,0.5,3,1,0.41,stimuli/inverted_faces/M31.png,stimuli/inverted_faces/M31morph.png,stimuli/inverted_faces/M31.png,2,faces,long,inverted,0,1,,,,,,,,,,,,,0,2,2,2,,,,,0,5,5,27,403.8707164999796,,,,,,,,,,,,403.8630789000308,403.8707164999796,403.8707164999796,403.86340090003796,,inverted,,,,408.8554313000059,0.6377131590542648,408.8628976000473,409.4971946000587,409.4882991000777,,,,,,,,,,,,,412.48059100005776,1.039929975375343,412.48812870006077,413.52146690001246,413.5140044,403.8634147000266,403.8707164999796,408.8628976000473,408.8554101000773,,,,,,,,,,,,,,,,,,,,,,,,,,,,,,,,409.48831679997966,409.4971946000587,409.4971946000587,409.4971946000587,412.48812870006077,412.48812870006077,412.48812870006077,412.4803357999772,right,0,410.5082156000426,0.17598569998517632,,,,P002,1,2,False,False,False,False,2025-02-11_15h51.37.847,inversion_effect,2024.1.0,None,2025-02-11 15h52.00.114992 -0800,
stimuli/inverted_faces/faces_stimuli_InvLong.csv,0,5.0,0.5,3,1,0.41,stimuli/inverted_faces/M25.png,stimuli/inverted_faces/M25.png,stimuli/inverted_faces/M25morph.png,1,faces,long,inverted,0,1,,,,,,,,,,,,,0,2,2,2,,,,,0,6,6,11,413.52146690001246,,,,,,,,,,,,413.5142879000632,413.52146690001246,413.52146690001246,413.5146180000156,,inverted,,,,418.50720850005746,0.6579434700661468,418.5141681000823,419.16578779998235,419.15671270003077,,,,,,,,,,,,,422.1493656000821,1.0906412400663923,422.15650699997786,423.2406282000011,423.23225930007175,413.5146306999959,413.52146690001246,418.5141681000823,418.5071768000489,,,,,,,,,,,,,,,,,,,,,,,,,,,,,,,,419.15673500008415,419.16578779998235,419.16578779998235,419.16578779998235,422.15650699997786,422.15650699997786,422.15650699997786,422.14897400001064,left,0,420.21217880002223,0.13614349998533726,,,,P002,1,2,False,False,False,False,2025-02-11_15h51.37.847,inversion_effect,2024.1.0,None,2025-02-11 15h52.00.114992 -0800,
stimuli/inverted_faces/faces_stimuli_InvLong.csv,0,5.0,0.5,3,1,0.41,stimuli/inverted_faces/M121.png,stimuli/inverted_faces/M121.png,stimuli/inverted_faces/M121morph.png,1,faces,long,inverted,0,1,,,,,,,,,,,,,0,2,2,2,,,,,0,7,7,1,423.2406282000011,,,,,,,,,,,,423.23258060007356,423.2406282000011,423.2406282000011,423.23302200005855,,inverted,,,,428.225165400072,0.6161860093691061,428.2324605000904,428.8428564000642,428.83314600004815,,,,,,,,,,,,,431.8341254000552,1.0664912720850634,431.8412284000078,432.899891500012,432.8920216000406,423.2330356000457,423.2406282000011,428.2324605000904,428.22513550007716,,,,,,,,,,,,,,,,,,,,,,,,,,,,,,,,428.8331666000886,428.8428564000642,428.8428564000642,428.8428564000642,431.8412284000078,431.8412284000078,431.8412284000078,431.8337407000363,left,0,430.00372560007963,0.1365714999847114,,,,P002,1,2,False,False,False,False,2025-02-11_15h51.37.847,inversion_effect,2024.1.0,None,2025-02-11 15h52.00.114992 -0800,
stimuli/inverted_faces/faces_stimuli_InvLong.csv,0,5.0,0.5,3,1,0.41,stimuli/inverted_faces/F11.png,stimuli/inverted_faces/F11morph.png,stimuli/inverted_faces/F11.png,2,faces,long,inverted,0,1,,,,,,,,,,,,,0,2,2,2,,,,,0,8,8,14,432.899891500012,,,,,,,,,,,,432.8924032000359,432.899891500012,432.899891500012,432.89275780005846,,inverted,,,,437.88496940000914,0.5099128974907412,437.89252180000767,438.40209780004807,438.3928650000598,,,,,,,,,,,,,441.3854455000255,1.1478038284113512,441.39266240003053,442.53474270005245,442.5268672000384,432.8927742000669,432.899891500012,437.89252180000767,437.88494450005237,,,,,,,,,,,,,,,,,,,,,,,,,,,,,,,,438.39288479997776,438.40209780004807,438.40209780004807,438.40209780004807,441.39266240003053,441.39266240003053,441.39266240003053,441.38509670004714,right,0,439.74759580008686,0.1529288999736309,,,,P002,1,2,False,False,False,False,2025-02-11_15h51.37.847,inversion_effect,2024.1.0,None,2025-02-11 15h52.00.114992 -0800,
stimuli/inverted_faces/faces_stimuli_InvLong.csv,0,5.0,0.5,3,1,0.41,stimuli/inverted_faces/M129.png,stimuli/inverted_faces/M129.png,stimuli/inverted_faces/M129morph.png,1,faces,long,inverted,0,1,,,,,,,,,,,,,0,2,2,2,,,,,0,9,9,3,442.53474270005245,,,,,,,,,,,,442.52723600005265,442.53474270005245,442.53474270005245,442.5275570000522,,inverted,,,,447.5193673000904,0.6034375343987182,447.52700160001405,448.1280481000431,448.1193023000378,,,,,,,,,,,,,451.11137120006606,1.1703535050309095,451.1190650999779,452.28552999999374,452.27789520006627,442.52757470007055,442.53474270005245,447.52700160001405,447.5193455000408,,,,,,,,,,,,,,,,,,,,,,,,,,,,,,,,448.11932190007064,448.1280481000431,448.1280481000431,448.1280481000431,451.1190650999779,451.1190650999779,451.1190650999779,451.1111048000166,left,0,449.1723433000734,0.13612659997306764,,,,P002,1,2,False,False,False,False,2025-02-11_15h51.37.847,inversion_effect,2024.1.0,None,2025-02-11 15h52.00.114992 -0800,
stimuli/inverted_faces/faces_stimuli_InvLong.csv,0,5.0,0.5,3,1,0.41,stimuli/inverted_faces/F13.png,stimuli/inverted_faces/F13morph.png,stimuli/inverted_faces/F13.png,2,faces,long,inverted,0,1,,,,,,,,,,,,,0,2,2,2,,,,,0,10,10,16,452.28552999999374,,,,,,,,,,,,452.2781739999773,452.28552999999374,452.28552999999374,452.2784044999862,,inverted,,,,457.2702673000749,0.5202985875573114,457.27816220000386,457.79510290001053,457.7871624000836,,,,,,,,,,,,,460.7795129000442,1.1224353759084742,460.7870563000906,461.9036718000425,461.8958464000607,452.27841420006007,452.28552999999374,457.27816220000386,457.27025300008245,,,,,,,,,,,,,,,,,,,,,,,,,,,,,,,,457.78717600007076,457.79510290001053,457.79510290001053,457.79510290001053,460.7870563000906,460.7870563000906,460.7870563000906,460.77926550002303,right,0,458.9638398999814,0.15197970008011907,,,,P002,1,2,False,False,False,False,2025-02-11_15h51.37.847,inversion_effect,2024.1.0,None,2025-02-11 15h52.00.114992 -0800,
stimuli/inverted_faces/faces_stimuli_InvLong.csv,0,5.0,0.5,3,1,0.41,stimuli/inverted_faces/M127.png,stimuli/inverted_faces/M127.png,stimuli/inverted_faces/M127morph.png,1,faces,long,inverted,0,1,,,,,,,,,,,,,0,2,2,2,,,,,0,11,11,8,461.9036718000425,,,,,,,,,,,,461.8960766000673,461.9036718000425,461.9036718000425,461.89627110003494,,inverted,,,,466.8887353000464,0.5186853810614537,466.89651510003023,467.4150803000666,467.40559660003055,,,,,,,,,,,,,470.4059949000366,1.2498895961164325,470.41361200006213,471.6551862000488,471.64767229999416,461.8962794999825,461.9036718000425,466.89651510003023,466.88871860003565,,,,,,,,,,,,,,,,,,,,,,,,,,,,,,,,467.405619300087,467.4150803000666,467.4150803000666,467.4150803000666,470.41361200006213,470.41361200006213,470.41361200006213,470.4057367000496,left,0,468.3559971000068,0.1439894000068307,,,,P002,1,2,False,False,False,False,2025-02-11_15h51.37.847,inversion_effect,2024.1.0,None,2025-02-11 15h52.00.114992 -0800,
stimuli/inverted_faces/faces_stimuli_InvLong.csv,0,5.0,0.5,3,1,0.41,stimuli/inverted_faces/F7.png,stimuli/inverted_faces/F7morph.png,stimuli/inverted_faces/F7.png,2,faces,long,inverted,0,1,,,,,,,,,,,,,0,2,2,2,,,,,0,12,12,18,471.6551862000488,,,,,,,,,,,,471.64796520001255,471.6551862000488,471.6551862000488,471.6482390000019,,inverted,,,,476.6401288000634,0.5553729796775905,476.6478676000843,477.198232499999,477.18997359997593,,,,,,,,,,,,,480.18227900005877,1.2204816931622033,480.1901230000658,481.40737430006266,481.3993746000342,471.6482524999883,471.6551862000488,476.6478676000843,476.64011110004503,,,,,,,,,,,,,,,,,,,,,,,,,,,,,,,,477.1899887000909,477.198232499999,477.198232499999,477.198232499999,480.1901230000658,480.1901230000658,480.1901230000658,480.1820495000575,left,0,477.8675955000799,0.1608051999937743,,,,P002,1,2,False,False,False,False,2025-02-11_15h51.37.847,inversion_effect,2024.1.0,None,2025-02-11 15h52.00.114992 -0800,
stimuli/inverted_faces/faces_stimuli_InvLong.csv,0,5.0,0.5,3,1,0.41,stimuli/inverted_faces/M126.png,stimuli/inverted_faces/M126.png,stimuli/inverted_faces/M126morph.png,1,faces,long,inverted,0,1,,,,,,,,,,,,,0,2,2,2,,,,,0,13,13,2,481.40737430006266,,,,,,,,,,,,481.3996967000421,481.40737430006266,481.40737430006266,481.4000400999794,,inverted,,,,486.39174180000555,0.5664016591155993,486.399283100036,486.95891230006237,486.95010560005903,,,,,,,,,,,,,489.94260770000983,1.241958084311059,489.9498477000743,491.18302160000894,491.1754604000598,481.4000552999787,481.40737430006266,486.399283100036,486.39171930006705,,,,,,,,,,,,,,,,,,,,,,,,,,,,,,,,486.9501251000911,486.95891230006237,486.95891230006237,486.95891230006237,489.9498477000743,489.9498477000743,489.9498477000743,489.9422303000465,left,0,487.99628120008856,0.14414119999855757,,,,P002,1,2,False,False,False,False,2025-02-11_15h51.37.847,inversion_effect,2024.1.0,None,2025-02-11 15h52.00.114992 -0800,
stimuli/inverted_faces/faces_stimuli_InvLong.csv,0,5.0,0.5,3,1,0.41,stimuli/inverted_faces/M130.png,stimuli/inverted_faces/M130.png,stimuli/inverted_faces/M130morph.png,1,faces,long,inverted,0,1,,,,,,,,,,,,,0,2,2,2,,,,,0,14,14,9,491.18302160000894,,,,,,,,,,,,491.17577700002585,491.18302160000894,491.18302160000894,491.1760618999833,,inverted,,,,496.16821080003865,0.6127185974078515,496.17578779999167,496.78552380006295,496.7763428000035,,,,,,,,,,,,,499.7691476000473,1.0594731878914838,499.77638120006304,500.82627419999335,500.8187573000323,491.1760759000899,491.18302160000894,496.17578779999167,496.1681908000028,,,,,,,,,,,,,,,,,,,,,,,,,,,,,,,,496.7763582000043,496.78552380006295,496.78552380006295,496.78552380006295,499.77638120006304,499.77638120006304,499.77638120006304,499.7687610000139,left,0,498.14827570004854,0.1281450999667868,,,,P002,1,2,False,False,False,False,2025-02-11_15h51.37.847,inversion_effect,2024.1.0,None,2025-02-11 15h52.00.114992 -0800,
stimuli/inverted_faces/faces_stimuli_InvLong.csv,0,5.0,0.5,3,1,0.41,stimuli/inverted_faces/M119.png,stimuli/inverted_faces/M119.png,stimuli/inverted_faces/M119morph.png,1,faces,long,inverted,0,1,,,,,,,,,,,,,0,2,2,2,,,,,0,15,15,6,500.82627419999335,,,,,,,,,,,,500.8190520000644,500.82627419999335,500.82627419999335,500.819323200034,,inverted,,,,505.81118970003445,0.6192634376891684,505.818896700046,506.4369445000775,506.4278611000627,,,,,,,,,,,,,509.4203975000419,1.2109596822246098,509.4277548000682,510.6358939000638,510.6283650000114,500.81933590001427,500.82627419999335,505.818896700046,505.8111717000138,,,,,,,,,,,,,,,,,,,,,,,,,,,,,,,,506.4278804999776,506.4369445000775,506.4369445000775,506.4369445000775,509.4277548000682,509.4277548000682,509.4277548000682,509.42009250004776,left,0,507.7250273000682,0.15199419995769858,,,,P002,1,2,False,False,False,False,2025-02-11_15h51.37.847,inversion_effect,2024.1.0,None,2025-02-11 15h52.00.114992 -0800,
stimuli/inverted_faces/faces_stimuli_InvLong.csv,0,5.0,0.5,3,1,0.41,stimuli/inverted_faces/M32.png,stimuli/inverted_faces/M32morph.png,stimuli/inverted_faces/M32.png,2,faces,long,inverted,0,1,,,,,,,,,,,,,0,2,2,2,,,,,0,16,16,20,510.6358939000638,,,,,,,,,,,,510.62861870008055,510.6358939000638,510.6358939000638,510.62886539998,,inverted,,,,515.620943600079,0.6286281030149174,515.6286581000313,516.2554515000666,516.2460081999889,,,,,,,,,,,,,519.2469032000517,1.1706035543218072,519.254144400009,520.4207540000789,520.4130352999782,510.62887610006146,510.6358939000638,515.6286581000313,515.6209256000584,,,,,,,,,,,,,,,,,,,,,,,,,,,,,,,,516.2460280000232,516.2554515000666,516.2554515000666,516.2554515000666,519.254144400009,519.254144400009,519.254144400009,519.2466643999796,None,0,,,,,,P002,1,2,False,False,False,False,2025-02-11_15h51.37.847,inversion_effect,2024.1.0,None,2025-02-11 15h52.00.114992 -0800,
stimuli/inverted_faces/faces_stimuli_InvLong.csv,0,5.0,0.5,3,1,0.41,stimuli/inverted_faces/M131.png,stimuli/inverted_faces/M131.png,stimuli/inverted_faces/M131morph.png,1,faces,long,inverted,0,1,,,,,,,,,,,,,0,2,2,2,,,,,0,17,17,10,520.4207540000789,,,,,,,,,,,,520.4132940000854,520.4207540000789,520.4207540000789,520.4134952999884,,inverted,,,,525.4057702000719,0.5270897931034436,525.4133744999999,525.9394939000485,525.9306162000867,,,,,,,,,,,,,528.9232259000419,1.0065415443904764,528.9306030999869,529.9319697000319,529.9236650000094,520.4135042000562,520.4207540000789,525.4133744999999,525.4057494000299,,,,,,,,,,,,,,,,,,,,,,,,,,,,,,,,525.9306340999901,525.9394939000485,525.9394939000485,525.9394939000485,528.9306030999869,528.9306030999869,528.9306030999869,528.9229354000418,left,0,526.7724645000417,0.12773219996597618,,,,P002,1,2,False,False,False,False,2025-02-11_15h51.37.847,inversion_effect,2024.1.0,None,2025-02-11 15h52.00.114992 -0800,
stimuli/inverted_faces/faces_stimuli_InvLong.csv,0,5.0,0.5,3,1,0.41,stimuli/inverted_faces/F12.png,stimuli/inverted_faces/F12morph.png,stimuli/inverted_faces/F12.png,2,faces,long,inverted,0,1,,,,,,,,,,,,,0,2,2,2,,,,,0,18,18,15,529.9319697000319,,,,,,,,,,,,529.9240616000025,529.9319697000319,529.9319697000319,529.9244344000472,,inverted,,,,534.9157171000261,0.6304432845611438,534.9237029000651,535.5495260000462,535.5405630000168,,,,,,,,,,,,,538.5331450999947,1.0793337676191308,538.5405947000254,539.6152381000575,539.6077822999796,529.9244510000572,529.9319697000319,534.9237029000651,534.9156962999841,,,,,,,,,,,,,,,,,,,,,,,,,,,,,,,,535.5405806000344,535.5495260000462,535.5495260000462,535.5495260000462,538.5405947000254,538.5405947000254,538.5405947000254,538.5328005000483,right,0,536.3562856999924,0.1679160000057891,,,,P002,1,2,False,False,False,False,2025-02-11_15h51.37.847,inversion_effect,2024.1.0,None,2025-02-11 15h52.00.114992 -0800,
stimuli/inverted_faces/faces_stimuli_InvLong.csv,0,5.0,0.5,3,1,0.41,stimuli/inverted_faces/M28.png,stimuli/inverted_faces/M28.png,stimuli/inverted_faces/M28morph.png,1,faces,long,inverted,0,1,,,,,,,,,,,,,0,2,2,2,,,,,0,19,19,12,539.6152381000575,,,,,,,,,,,,539.6080884999828,539.6152381000575,539.6152381000575,539.6083869000431,,inverted,,,,544.6006252000807,0.6486139627537735,544.6079863000195,545.251310300082,545.2423131000251,,,,,,,,,,,,,548.2348151000915,1.2908496575959967,548.2419223000761,549.5262164000887,549.517866200069,539.6084004000295,539.6152381000575,544.6079863000195,544.6005982999923,,,,,,,,,,,,,,,,,,,,,,,,,,,,,,,,545.2423390999902,545.251310300082,545.251310300082,545.251310300082,548.2419223000761,548.2419223000761,548.2419223000761,548.2344682000112,left,0,546.244170500082,0.12802139995619655,,,,P002,1,2,False,False,False,False,2025-02-11_15h51.37.847,inversion_effect,2024.1.0,None,2025-02-11 15h52.00.114992 -0800,
stimuli/inverted_faces/faces_stimuli_InvLong.csv,0,5.0,0.5,3,1,0.41,stimuli/inverted_faces/M128.png,stimuli/inverted_faces/M128morph.png,stimuli/inverted_faces/M128.png,2,faces,long,inverted,0,1,,,,,,,,,,,,,0,2,2,2,,,,,0,20,20,25,549.5262164000887,,,,,,,,,,,,549.5182338000741,549.5262164000887,549.5262164000887,549.5185991000617,,inverted,,,,554.5100475000218,0.538919697770869,554.5179553000489,555.0514023000142,555.0431863000849,,,,,,,,,,,,,558.0360877000494,1.2754110149291091,558.0433559999801,559.3100470000645,559.3021936999867,549.5186147000641,549.5262164000887,554.5179553000489,554.5100303000072,,,,,,,,,,,,,,,,,,,,,,,,,,,,,,,,555.043201600085,555.0514023000142,555.0514023000142,555.0514023000142,558.0433559999801,558.0433559999801,558.0433559999801,558.0356949000852,right,0,556.2359871000517,0.15242950001265854,,,,P002,1,2,False,False,False,False,2025-02-11_15h51.37.847,inversion_effect,2024.1.0,None,2025-02-11 15h52.00.114992 -0800,
stimuli/inverted_faces/faces_stimuli_InvLong.csv,0,5.0,0.5,3,1,0.41,stimuli/inverted_faces/F16.png,stimuli/inverted_faces/F16morph.png,stimuli/inverted_faces/F16.png,2,faces,long,inverted,0,1,,,,,,,,,,,,,0,2,2,2,,,,,0,21,21,21,559.3100470000645,,,,,,,,,,,,559.3024821000872,559.3100470000645,559.3100470000645,559.3027264000848,,inverted,,,,564.2947067000205,0.5086046439916991,564.3025121000828,564.803198800073,564.7946375000756,,,,,,,,,,,,,567.7870474000229,1.2767508905942757,567.7946440000087,569.0696529999841,569.0619034999982,559.3027374000521,559.3100470000645,564.3025121000828,564.294690300012,,,,,,,,,,,,,,,,,,,,,,,,,,,,,,,,564.794651400065,564.803198800073,564.803198800073,564.803198800073,567.7946440000087,567.7946440000087,567.7946440000087,567.786792900064,right,0,566.4840649000835,0.15972429991234094,,,,P002,1,2,False,False,False,False,2025-02-11_15h51.37.847,inversion_effect,2024.1.0,None,2025-02-11 15h52.00.114992 -0800,
stimuli/inverted_faces/faces_stimuli_InvLong.csv,0,5.0,0.5,3,1,0.41,stimuli/inverted_faces/F18.png,stimuli/inverted_faces/F18.png,stimuli/inverted_faces/F18morph.png,1,faces,long,inverted,0,1,,,,,,,,,,,,,0,2,2,2,,,,,0,22,22,0,569.0696529999841,,,,,,,,,,,,569.0621521000285,569.0696529999841,569.0696529999841,569.0623921999941,,inverted,,,,574.0544861999806,0.5467097800952236,574.062285699998,574.6039676000364,574.5960359000601,,,,,,,,,,,,,577.5887038999936,1.0446191341323199,577.5963556000497,578.6377868000418,578.6300020000199,569.0624020000687,569.0696529999841,574.062285699998,574.0544697000878,,,,,,,,,,,,,,,,,,,,,,,,,,,,,,,,574.5960488000419,574.6039676000364,574.6039676000364,574.6039676000364,577.5963556000497,577.5963556000497,577.5963556000497,577.5884111999767,left,0,575.9642014000565,0.14400430000387132,,,,P002,1,2,False,False,False,False,2025-02-11_15h51.37.847,inversion_effect,2024.1.0,None,2025-02-11 15h52.00.114992 -0800,
stimuli/inverted_faces/faces_stimuli_InvLong.csv,0,5.0,0.5,3,1,0.41,stimuli/inverted_faces/F10.png,stimuli/inverted_faces/F10.png,stimuli/inverted_faces/F10morph.png,1,faces,long,inverted,0,1,,,,,,,,,,,,,0,2,2,2,,,,,0,23,23,13,578.6377868000418,,,,,,,,,,,,578.6302664000541,578.6377868000418,578.6377868000418,578.6305162999779,,inverted,,,,583.622863400029,0.6041868573835492,583.6306686000898,584.2325486000627,584.2229464000557,,,,,,,,,,,,,587.2236988000805,1.025867795442525,587.2310191000579,588.2475187000819,588.2402109000832,578.6305256000487,578.6377868000418,583.6306686000898,583.622844700003,,,,,,,,,,,,,,,,,,,,,,,,,,,,,,,,584.2229660000885,584.2325486000627,584.2325486000627,584.2325486000627,587.2310191000579,587.2310191000579,587.2310191000579,587.2233780000824,right,0,585.1960859000683,0.15959259995725006,,,,P002,1,2,False,False,False,False,2025-02-11_15h51.37.847,inversion_effect,2024.1.0,None,2025-02-11 15h52.00.114992 -0800,
stimuli/inverted_faces/faces_stimuli_InvLong.csv,0,5.0,0.5,3,1,0.41,stimuli/inverted_faces/M123.png,stimuli/inverted_faces/M123.png,stimuli/inverted_faces/M123morph.png,1,faces,long,inverted,0,1,,,,,,,,,,,,,0,2,2,2,,,,,0,24,24,7,588.2475187000819,,,,,,,,,,,,588.2405235000188,588.2475187000819,588.2475187000819,588.2408580000047,,inverted,,,,593.2325316000497,0.6829675845609512,593.2402751999907,593.9166347000282,593.9075302000856,,,,,,,,,,,,,596.900226800004,1.143671440083945,596.9076249999925,598.0492569999769,598.0414390000515,588.2408700999804,588.2475187000819,593.2402751999907,593.2325126000214,,,,,,,,,,,,,,,,,,,,,,,,,,,,,,,,593.9075481999898,593.9166347000282,593.9166347000282,593.9166347000282,596.9076249999925,596.9076249999925,596.9076249999925,596.899853900075,left,0,594.6840055000503,0.14399609994143248,,,,P002,1,2,False,False,False,False,2025-02-11_15h51.37.847,inversion_effect,2024.1.0,None,2025-02-11 15h52.00.114992 -0800,
stimuli/inverted_faces/faces_stimuli_InvLong.csv,0,5.0,0.5,3,1,0.41,stimuli/inverted_faces/M22.png,stimuli/inverted_faces/M22morph.png,stimuli/inverted_faces/M22.png,2,faces,long,inverted,0,1,,,,,,,,,,,,,0,2,2,2,,,,,0,25,25,26,598.0492569999769,,,,,,,,,,,,598.0417750000488,598.0492569999769,598.0492569999769,598.0421427000547,,inverted,,,,603.0336502999999,0.6678338706555107,603.0415971000912,603.7004891000688,603.6921659000218,,,,,,,,,,,,,606.6850950000808,1.0700297120928977,606.6923343000235,607.7586447000504,607.7513610000024,598.0421592000639,598.0492569999769,603.0415971000912,603.0336357000051,,,,,,,,,,,,,,,,,,,,,,,,,,,,,,,,603.6921798000112,603.7004891000688,603.7004891000688,603.7004891000688,606.6923343000235,606.6923343000235,606.6923343000235,606.6847076000413,right,0,604.5326150000328,0.15205589996185154,,,,P002,1,2,False,False,False,False,2025-02-11_15h51.37.847,inversion_effect,2024.1.0,None,2025-02-11 15h52.00.114992 -0800,
stimuli/inverted_faces/faces_stimuli_InvLong.csv,0,5.0,0.5,3,1,0.41,stimuli/inverted_faces/F21.png,stimuli/inverted_faces/F21morph.png,stimuli/inverted_faces/F21.png,2,faces,long,inverted,0,1,,,,,,,,,,,,,0,2,2,2,,,,,0,26,26,22,607.7586447000504,,,,,,,,,,,,607.7516784000909,607.7586447000504,607.7586447000504,607.7519682000857,,inverted,,,,612.7439544000663,0.5310255826488659,612.7517270999961,613.2778609000379,613.2688348999945,,,,,,,,,,,,,616.261310000089,1.2890301622867386,616.2686953999801,617.5517827000003,617.5445308000781,607.7519800000591,607.7586447000504,612.7517270999961,612.7439337000251,,,,,,,,,,,,,,,,,,,,,,,,,,,,,,,,613.2688528000144,613.2778609000379,613.2778609000379,613.2778609000379,616.2686953999801,616.2686953999801,616.2686953999801,616.2609660000307,left,0,614.1403083000332,0.1520293999928981,,,,P002,1,2,False,False,False,False,2025-02-11_15h51.37.847,inversion_effect,2024.1.0,None,2025-02-11 15h52.00.114992 -0800,
stimuli/inverted_faces/faces_stimuli_InvLong.csv,0,5.0,0.5,3,1,0.41,stimuli/inverted_faces/F15.png,stimuli/inverted_faces/F15morph.png,stimuli/inverted_faces/F15.png,2,faces,long,inverted,0,1,,,,,,,,,,,,,0,2,2,2,,,,,0,27,27,17,617.5517827000003,,,,,,,,,,,,617.544848700054,617.5517827000003,617.5517827000003,617.5451707000611,,inverted,,,,622.5369886000408,0.5097317513932877,622.5445284000598,623.0527354000369,623.0450073999818,,,,,,,,,,,,,626.0376413000049,1.149500742408466,626.0451148999855,627.2270355999935,627.1791222000029,617.545184000046,617.5517827000003,622.5445284000598,622.5369675999973,,,,,,,,,,,,,,,,,,,,,,,,,,,,,,,,623.0450180000626,623.0527354000369,623.0527354000369,623.0527354000369,626.0451148999855,626.0451148999855,626.0451148999855,626.0373453000793,right,0,624.0606773000909,0.16734999988693744,,,,P002,1,2,False,False,False,False,2025-02-11_15h51.37.847,inversion_effect,2024.1.0,None,2025-02-11 15h52.00.114992 -0800,
stimuli/inverted_faces/faces_stimuli_UpLong.csv,0,5.0,0.5,3,1,0.41,stimuli/inverted_faces/M129.png,stimuli/inverted_faces/M129.png,stimuli/inverted_faces/M129morph.png,1,faces,long,upright,1,0,,,,,,,,,,,,,0,3,3,3,0,0,0,10,,,,,629.1964953000424,,,,,,,,,,,,629.189651700086,629.1964953000424,629.1964953000424,629.1901422999799,629.190162200015,upright,629.1964953000424,634.1883539999835,634.180526399985,634.1805454000132,0.6304985614320044,634.1883539999835,634.8143581000622,634.8053357000463,,,,,,,,,,,,,637.7979321000166,1.26368427542989,637.8054257000331,639.0636765999952,639.0558618999785,,,,,,,,,,,,,,,,,,,,,634.8053542000707,634.8143581000622,634.8143581000622,634.8143581000622,637.8054257000331,637.8054257000331,637.8054257000331,637.7975045000203,left,0,635.6765441000462,0.1520596999907866,627.2238979000831,627.2270355999935,629.1792810000479,,,,,,,,,,,,,,,,P002,1,2,False,False,False,False,2025-02-11_15h51.37.847,inversion_effect,2024.1.0,None,2025-02-11 15h52.00.114992 -0800,
stimuli/inverted_faces/faces_stimuli_UpLong.csv,0,5.0,0.5,3,1,0.41,stimuli/inverted_faces/F21.png,stimuli/inverted_faces/F21morph.png,stimuli/inverted_faces/F21.png,2,faces,long,upright,1,0,,,,,,,,,,,,,0,3,3,3,0,1,1,15,,,,,639.0636765999952,,,,,,,,,,,,639.0561339000706,639.0636765999952,639.0636765999952,639.0563784000697,639.0563892000355,upright,639.0636765999952,644.0563573000254,644.0483047000598,644.048320800066,0.6215399054132722,644.0563573000254,644.6727379000513,644.6650132000213,,,,,,,,,,,,,647.657942000078,1.1913080229199404,647.6651414000662,648.8488199000712,648.8409692000132,,,,,,,,,,,,,,,,,,,,,644.6650237999856,644.6727379000513,644.6727379000513,644.6727379000513,647.6651414000662,647.6651414000662,647.6651414000662,647.6576033000601,right,0,645.6439199000597,0.1520318000111729,,,,,,,,,,,,,,,,,,,P002,1,2,False,False,False,False,2025-02-11_15h51.37.847,inversion_effect,2024.1.0,None,2025-02-11 15h52.00.114992 -0800,
stimuli/inverted_faces/faces_stimuli_UpLong.csv,0,5.0,0.5,3,1,0.41,stimuli/inverted_faces/M125.png,stimuli/inverted_faces/M125morph.png,stimuli/inverted_faces/M125.png,2,faces,long,upright,1,0,,,,,,,,,,,,,0,3,3,3,0,2,2,19,,,,,648.8488199000712,,,,,,,,,,,,648.8413077000296,648.8488199000712,648.8488199000712,648.8416127000237,648.8416256000055,upright,648.8488199000712,653.840918000089,653.8330954000121,653.8331117000198,0.5598381760360764,653.840918000089,654.3994723000797,654.3913771000225,,,,,,,,,,,,,657.3837448999984,1.1641688857969923,657.391357799992,658.5496131000109,658.5420329000335,,,,,,,,,,,,,,,,,,,,,654.3913922000211,654.3994723000797,654.3994723000797,654.3994723000797,657.391357799992,657.391357799992,657.391357799992,657.383504300029,right,0,656.2756595000392,0.13621030002832413,,,,,,,,,,,,,,,,,,,P002,1,2,False,False,False,False,2025-02-11_15h51.37.847,inversion_effect,2024.1.0,None,2025-02-11 15h52.00.114992 -0800,
stimuli/inverted_faces/faces_stimuli_UpLong.csv,0,5.0,0.5,3,1,0.41,stimuli/inverted_faces/M35.png,stimuli/inverted_faces/M35.png,stimuli/inverted_faces/M35morph.png,1,faces,long,upright,1,0,,,,,,,,,,,,,0,3,3,3,0,3,3,13,,,,,658.5496131000109,,,,,,,,,,,,658.5422999000875,658.5496131000109,658.5496131000109,658.5425199000165,658.5425297000911,upright,658.5496131000109,663.5424367000815,663.534642499988,663.5346594000002,0.5030505946526627,663.5424367000815,664.0429938000161,664.0346141000045,,,,,,,,,,,,,667.0270406000782,1.1943576262202922,667.034611799987,668.2262603000272,668.2188212000765,,,,,,,,,,,,,,,,,,,,,664.0346302000107,664.0429938000161,664.0429938000161,664.0429938000161,667.034611799987,667.034611799987,667.034611799987,667.0267399000004,left,0,665.0362838000292,0.12797989998944104,,,,,,,,,,,,,,,,,,,P002,1,2,False,False,False,False,2025-02-11_15h51.37.847,inversion_effect,2024.1.0,None,2025-02-11 15h52.00.114992 -0800,
stimuli/inverted_faces/faces_stimuli_UpLong.csv,0,5.0,0.5,3,1,0.41,stimuli/inverted_faces/M123.png,stimuli/inverted_faces/M123morph.png,stimuli/inverted_faces/M123.png,2,faces,long,upright,1,0,,,,,,,,,,,,,0,3,3,3,0,4,4,18,,,,,668.2262603000272,,,,,,,,,,,,668.2191429000814,668.2262603000272,668.2262603000272,668.2194158000639,668.2194285000442,upright,668.2262603000272,673.2189268000657,673.2110612000106,673.2110781000229,0.5267358239289848,673.2189268000657,673.7441112999804,673.7359373000218,,,,,,,,,,,,,676.7285359000089,1.0885109241039308,676.7360280000139,677.8194235999836,677.8116330000339,,,,,,,,,,,,,,,,,,,,,673.7359518000158,673.7441112999804,673.7441112999804,673.7441112999804,676.7360280000139,676.7360280000139,676.7360280000139,676.7282309000148,right,0,674.3399541000836,0.1678444999270141,,,,,,,,,,,,,,,,,,,P002,1,2,False,False,False,False,2025-02-11_15h51.37.847,inversion_effect,2024.1.0,None,2025-02-11 15h52.00.114992 -0800,
stimuli/inverted_faces/faces_stimuli_UpLong.csv,0,5.0,0.5,3,1,0.41,stimuli/inverted_faces/F13.png,stimuli/inverted_faces/F13.png,stimuli/inverted_faces/F13morph.png,1,faces,long,upright,1,0,,,,,,,,,,,,,0,3,3,3,0,5,5,3,,,,,677.8194235999836,,,,,,,,,,,,677.8119301000843,677.8194235999836,677.8194235999836,677.8121633999981,677.8121743000811,upright,677.8194235999836,682.812327700085,682.8044855000917,682.8045074000256,0.6830133283682307,682.812327700085,683.494393400033,683.4789944000077,,,,,,,,,,,,,686.4803589000367,1.1971376674334884,686.4874701000517,687.6805762000149,687.6721844000276,,,,,,,,,,,,,,,,,,,,,683.4790056999773,683.494393400033,683.494393400033,683.494393400033,686.4874701000517,686.4874701000517,686.4874701000517,686.4800656000152,left,0,684.2600020000245,0.12806630006525666,,,,,,,,,,,,,,,,,,,P002,1,2,False,False,False,False,2025-02-11_15h51.37.847,inversion_effect,2024.1.0,None,2025-02-11 15h52.00.114992 -0800,
stimuli/inverted_faces/faces_stimuli_UpLong.csv,0,5.0,0.5,3,1,0.41,stimuli/inverted_faces/M130.png,stimuli/inverted_faces/M130morph.png,stimuli/inverted_faces/M130.png,2,faces,long,upright,1,0,,,,,,,,,,,,,0,3,3,3,0,6,6,22,,,,,687.6805762000149,,,,,,,,,,,,687.6726571000181,687.6805762000149,687.6805762000149,687.6730486000888,687.6730652999831,upright,687.6805762000149,692.6718371000607,692.6646591000026,692.6646819000598,0.6973135095044731,692.6718371000607,693.3658497000579,693.3560424000025,,,,,,,,,,,,,696.3569467000198,1.0275422660312432,696.3641500000376,697.3900213000597,697.381721700076,,,,,,,,,,,,,,,,,,,,,693.3560647000559,693.3658497000579,693.3658497000579,693.3658497000579,696.3641500000376,696.3641500000376,696.3641500000376,696.3565097000683,right,0,694.2918215000536,0.14411350002046674,,,,,,,,,,,,,,,,,,,P002,1,2,False,False,False,False,2025-02-11_15h51.37.847,inversion_effect,2024.1.0,None,2025-02-11 15h52.00.114992 -0800,
stimuli/inverted_faces/faces_stimuli_UpLong.csv,0,5.0,0.5,3,1,0.41,stimuli/inverted_faces/M22.png,stimuli/inverted_faces/M22morph.png,stimuli/inverted_faces/M22.png,2,faces,long,upright,1,0,,,,,,,,,,,,,0,3,3,3,0,7,7,24,,,,,697.3900213000597,,,,,,,,,,,,697.3820677000331,697.3900213000597,697.3900213000597,697.3824473000132,697.3824628000148,upright,697.3900213000597,702.3815922000213,702.3738954000873,702.3739162000129,0.6299270450879821,702.3815922000213,703.0074637000216,702.9987209000392,,,,,,,,,,,,,705.9913582000881,1.0709640245948682,705.9985319999978,707.06520000007,707.0577402000781,,,,,,,,,,,,,,,,,,,,,702.9987391000614,703.0074637000216,703.0074637000216,703.0074637000216,705.9985319999978,705.9985319999978,705.9985319999978,705.991185800056,right,0,703.8040391000686,0.13597199996002018,,,,,,,,,,,,,,,,,,,P002,1,2,False,False,False,False,2025-02-11_15h51.37.847,inversion_effect,2024.1.0,None,2025-02-11 15h52.00.114992 -0800,
stimuli/inverted_faces/faces_stimuli_UpLong.csv,0,5.0,0.5,3,1,0.41,stimuli/inverted_faces/M126.png,stimuli/inverted_faces/M126.png,stimuli/inverted_faces/M126morph.png,1,faces,long,upright,1,0,,,,,,,,,,,,,0,3,3,3,0,8,8,9,,,,,707.06520000007,,,,,,,,,,,,707.058062300086,707.06520000007,707.06520000007,707.0583774000406,707.0583929000422,upright,707.06520000007,712.0580788999796,712.0507530000759,712.0507772000274,0.6014427975086829,712.0580788999796,712.6605103000766,712.6505268000765,,,,,,,,,,,,,715.6513417999959,1.2897517451388354,715.658601299976,716.941890200018,716.934380199993,,,,,,,,,,,,,,,,,,,,,712.6505463999929,712.6605103000766,712.6605103000766,712.6605103000766,715.658601299976,715.658601299976,715.658601299976,715.6509533000644,left,0,714.4124732000055,0.12812910007778555,,,,,,,,,,,,,,,,,,,P002,1,2,False,False,False,False,2025-02-11_15h51.37.847,inversion_effect,2024.1.0,None,2025-02-11 15h52.00.114992 -0800,
stimuli/inverted_faces/faces_stimuli_UpLong.csv,0,5.0,0.5,3,1,0.41,stimuli/inverted_faces/M32.png,stimuli/inverted_faces/M32.png,stimuli/inverted_faces/M32morph.png,1,faces,long,upright,1,0,,,,,,,,,,,,,0,3,3,3,0,9,9,12,,,,,716.941890200018,,,,,,,,,,,,716.9347417000681,716.941890200018,716.941890200018,716.9350724000251,716.9350875000237,upright,716.941890200018,721.9346467000432,721.9271160999779,721.9271414000541,0.5381736886159775,721.9346467000432,722.4697121999925,722.4601814000634,,,,,,,,,,,,,725.4614804000594,1.10640667793546,725.4684116999852,726.5680912000826,726.5605803000508,,,,,,,,,,,,,,,,,,,,,722.4602053000126,722.4697121999925,722.4697121999925,722.4697121999925,725.4684116999852,725.4684116999852,725.4684116999852,725.4610443999991,left,0,723.8761845000554,0.16804929997306317,,,,,,,,,,,,,,,,,,,P002,1,2,False,False,False,False,2025-02-11_15h51.37.847,inversion_effect,2024.1.0,None,2025-02-11 15h52.00.114992 -0800,
stimuli/inverted_faces/faces_stimuli_UpLong.csv,0,5.0,0.5,3,1,0.41,stimuli/inverted_faces/M21.png,stimuli/inverted_faces/M21.png,stimuli/inverted_faces/M21morph.png,1,faces,long,upright,1,0,,,,,,,,,,,,,0,3,3,3,0,10,10,11,,,,,726.5680912000826,,,,,,,,,,,,726.5609213000862,726.5680912000826,726.5680912000826,726.5612038000254,726.5612152999965,upright,726.5680912000826,731.5610190000152,731.5536184000084,731.5536477999995,0.5530351806796985,731.5610190000152,732.113018300035,732.1032094000839,,,,,,,,,,,,,735.1043510000454,1.219386661334464,735.1114247000078,736.3293004999869,736.3205823000753,,,,,,,,,,,,,,,,,,,,,732.1032292000018,732.113018300035,732.113018300035,732.113018300035,735.1114247000078,735.1114247000078,735.1114247000078,735.1038966000779,left,0,733.5006864999887,0.16803830000571907,,,,,,,,,,,,,,,,,,,P002,1,2,False,False,False,False,2025-02-11_15h51.37.847,inversion_effect,2024.1.0,None,2025-02-11 15h52.00.114992 -0800,
stimuli/inverted_faces/faces_stimuli_UpLong.csv,0,5.0,0.5,3,1,0.41,stimuli/inverted_faces/F16.png,stimuli/inverted_faces/F16morph.png,stimuli/inverted_faces/F16.png,2,faces,long,upright,1,0,,,,,,,,,,,,,0,3,3,3,0,11,11,14,,,,,736.3293004999869,,,,,,,,,,,,736.3209157000529,736.3293004999869,736.3293004999869,736.321248000022,736.321262100013,upright,736.3293004999869,741.3211053999839,741.3134261000669,741.3134480000008,0.5906155131295836,741.3211053999839,741.9065297000343,741.8966105000582,,,,,,,,,,,,,744.8964871000499,1.048257960267063,744.9042816000292,745.9460159000009,745.9385632000631,,,,,,,,,,,,,,,,,,,,,741.896631599986,741.9065297000343,741.9065297000343,741.9065297000343,744.9042816000292,744.9042816000292,744.9042816000292,744.8962926000822,right,0,742.6998296000529,0.16045299998950213,,,,,,,,,,,,,,,,,,,P002,1,2,False,False,False,False,2025-02-11_15h51.37.847,inversion_effect,2024.1.0,None,2025-02-11 15h52.00.114992 -0800,
stimuli/inverted_faces/faces_stimuli_UpLong.csv,0,5.0,0.5,3,1,0.41,stimuli/inverted_faces/F11.png,stimuli/inverted_faces/F11.png,stimuli/inverted_faces/F11morph.png,1,faces,long,upright,1,0,,,,,,,,,,,,,0,3,3,3,0,12,12,1,,,,,745.9460159000009,,,,,,,,,,,,745.9388661000412,745.9460159000009,745.9460159000009,745.9391711000353,745.9391831000103,upright,745.9460159000009,750.9387255000183,750.9311435000272,750.9311657000799,0.5312776543270611,750.9387255000183,751.464032900054,751.4558298999909,,,,,,,,,,,,,754.448474499979,1.038686342206129,754.4558224000502,755.4894194999943,755.481693000067,,,,,,,,,,,,,,,,,,,,,751.4558454999933,751.464032900054,751.464032900054,751.464032900054,754.4558224000502,754.4558224000502,754.4558224000502,754.4481822000816,left,0,752.5799271999858,0.15214530006051064,,,,,,,,,,,,,,,,,,,P002,1,2,False,False,False,False,2025-02-11_15h51.37.847,inversion_effect,2024.1.0,None,2025-02-11 15h52.00.114992 -0800,
